accel_z,vel_x,quat_i,quat_k,quat_w,button,uwb_1,accel_x,device_id,accel_y,timestamp,vel_z,pos_x,vel_y,quat_j,uwb_2
1,2527337,0.01107924897223711,0.0009699154179543257,0.02192394994199276,,,True,0.908447265625,0.139404296875,-0.00213623046875,-0.39404296875,0.0,0.0,0.0,0.0,0.0,0.0
1,2537796,0.01847313530743122,-0.00952487625181675,0.0305863618850708,,,True,0.90838623046875,0.1397705078125,-0.0029296875,-0.39410400390625,0.0,0.0,0.0,0.0,0.0,0.0
1,2549135,0.01973734237253666,-0.0035531262401491404,0.03431963920593262,,,True,0.908203125,0.14031982421875,-0.00408935546875,-0.39422607421875,0.0,0.0,0.0,0.0,0.0,0.0
1,2562712,0.01153508760035038,0.0002864211273845285,0.04638506844639778,,,True,0.90802001953125,0.140869140625,-0.0054931640625,-0.3944091796875,0.0,0.0,0.0,0.0,0.0,0.0
1,2571887,0.01616823673248291,0.0011764656519517303,0.045504726469516754,,,True,0.907958984375,0.1412353515625,-0.006591796875,-0.39453125,0.0,0.0,0.0,0.0,0.0,0.0
1,2581889,0.01946314610540867,-0.002197019290179014,0.05078715458512306,,,True,0.9078369140625,0.14178466796875,-0.00787353515625,-0.39459228515625,0.0,0.0,0.0,0.0,0.0,0.0
1,2594141,0.02152174711227417,0.00034171825973317027,0.04979722201824188,,,True,0.9075927734375,0.14227294921875,-0.009521484375,-0.39483642578125,0.0,0.0,0.0,0.0,0.0,0.0
1,2607812,0.030123313888907433,0.00836208090186119,0.05487614497542381,,,True,0.9073486328125,0.142822265625,-0.01123046875,-0.3951416015625,0.0,0.0,0.0,0.0,0.0,0.0
1,2617147,0.040317896753549576,0.032506491988897324,0.06683635711669922,,,True,0.90716552734375,0.1431884765625,-0.0125732421875,-0.39544677734375,0.0,0.0,0.0,0.0,0.0,0.0
1,2629266,0.043839942663908005,0.04921841621398926,0.08125802874565125,,,True,0.90692138671875,0.1434326171875,-0.01422119140625,-0.39581298828125,0.0,0.0,0.0,0.0,0.0,0.0
1,2641603,0.04284827783703804,0.05446655675768852,0.09840865433216095,,,True,0.9066162109375,0.14373779296875,-0.015869140625,-0.3963623046875,0.0,0.0,0.0,0.0,0.0,0.0
1,2651263,0.019207723438739777,0.055608879774808884,0.10732466727495193,,,True,0.90643310546875,0.14422607421875,-0.0172119140625,-0.3966064453125,0.0,0.0,0.0,0.0,0.0,0.0
1,2662321,0.006556014530360699,0.06718667596578598,0.10927774757146835,,,True,0.90631103515625,0.14471435546875,-0.0185546875,-0.3966064453125,0.0,0.0,0.0,0.0,0.0,0.0
1,2672357,-0.009826726280152798,0.07379423826932907,0.11786037683486938,,,True,0.9085693359375,0.14501953125,-0.01910400390625,-0.391357421875,0.0,0.0,0.0,0.0,0.0,0.0
1,2684356,-0.0124488091096282,0.08063741773366928,0.08444181084632874,,,True,0.90887451171875,0.14520263671875,-0.0205078125,-0.3905029296875,0.0,0.0,0.0,0.0,0.0,0.0
1,2700037,-0.07874153554439545,0.03555763512849808,0.032604705542325974,,,True,0.90948486328125,0.1446533203125,-0.021240234375,-0.38916015625,0.0,0.0,0.0,0.0,0.0,0.0
1,2712309,-0.08624972403049469,0.0199351217597723,0.029242057353258133,,,True,0.91021728515625,0.14453125,-0.02197265625,-0.38751220703125,0.0,0.0,0.0,0.0,0.0,0.0
1,2725408,-0.08919224143028259,-0.013104429468512535,0.002216000109910965,,,True,0.91107177734375,0.144287109375,-0.02288818359375,-0.385498046875,0.0,0.0,0.0,0.0,0.0,0.0
1,2734416,-0.0809808149933815,-0.02677704207599163,-0.03164523467421532,,,True,0.9117431640625,0.1439208984375,-0.0235595703125,-0.38397216796875,0.0,0.0,0.0,0.0,0.0,0.0
1,2748553,-0.10060389339923859,0.01181238517165184,-0.0980391800403595,,,True,0.91265869140625,0.1431884765625,-0.02447509765625,-0.38201904296875,0.0,0.0,0.0,0.0,0.0,0.0
1,2760748,-0.10843013226985931,0.03157809004187584,-0.21097178757190704,,,True,0.91400146484375,0.14129638671875,-0.0242919921875,-0.37957763671875,0.0,0.0,0.0,0.0,0.0,0.0
1,2772967,-0.08980729430913925,-0.04627997800707817,-0.1616838425397873,,,True,0.91497802734375,0.14019775390625,-0.02447509765625,-0.37762451171875,0.0,0.0,0.0,0.0,0.0,0.0
1,2782513,-0.0581851527094841,-0.05278912931680679,-0.12300783395767212,,,True,0.91534423828125,0.13995361328125,-0.0255126953125,-0.376708984375,0.0,0.0,0.0,0.0,0.0,0.0
1,2795674,-0.04929649829864502,-0.04381994530558586,-0.10546546429395676,,,True,0.91552734375,0.1395263671875,-0.0269775390625,-0.37640380859375,0.0,0.0,0.0,0.0,0.0,0.0
1,2808950,-0.03822013735771179,-0.049960583448410034,-0.09847359359264374,,,True,0.915283203125,0.1396484375,-0.0284423828125,-0.376708984375,0.0,0.0,0.0,0.0,0.0,0.0
1,2817516,-0.03146117925643921,-0.0603124238550663,-0.09298451244831085,,,True,0.9149169921875,0.14019775390625,-0.02947998046875,-0.3773193359375,0.0,0.0,0.0,-4.2691493809971e-05,2.4588443114706e-06,-8.843227891099307e-05
1,2831950,-0.031209837645292282,-0.06830556690692902,-0.08357224613428116,,,True,0.91412353515625,0.14141845703125,-0.03125,-0.378662109375,0.0,0.0,0.0,-4.2691493809971e-05,2.4588443114706e-06,-8.843227891099307e-05
1,2841578,-0.032750483602285385,-0.06875041127204895,-0.08287017792463303,,,True,0.91357421875,0.14215087890625,-0.03216552734375,-0.379638671875,0.0,0.0,0.0,-4.2691493809971e-05,2.4588443114706e-06,-8.843227891099307e-05
1,2855697,-0.03311702981591225,-0.06366170942783356,-0.09383298456668854,,,True,0.9129638671875,0.14300537109375,-0.03302001953125,-0.3807373046875,0.0,0.0,0.0,-4.2691493809971e-05,2.4588443114706e-06,-8.843227891099307e-05
1,2869141,-0.03962882608175278,-0.046532053500413895,-0.10693017393350601,,,True,0.912353515625,0.14373779296875,-0.0333251953125,-0.3818359375,0.0,0.0,0.0,-4.2691493809971e-05,2.4588443114706e-06,-8.843227891099307e-05
1,2880329,-0.04801755025982857,-0.03436532989144325,-0.1287972331047058,,,True,0.91204833984375,0.14410400390625,-0.03338623046875,-0.38250732421875,0.0,0.0,0.0,-4.2691493809971e-05,2.4588443114706e-06,-8.843227891099307e-05
1,2894464,-0.06796860694885254,-0.016896745190024376,-0.14645880460739136,,,True,0.91162109375,0.1444091796875,-0.0333251953125,-0.38336181640625,0.0,0.0,0.0,-4.2691493809971e-05,2.4588443114706e-06,-8.843227891099307e-05
1,2907193,-0.08932752162218094,-0.0034359090495854616,-0.15464212000370026,,,True,0.911376953125,0.14434814453125,-0.03326416015625,-0.384033203125,-0.0008497494720697133,-0.00019766795038919177,-0.0021224084001665085,-5.4702702597676395e-05,-3.3519216728062567e-07,-0.00011843252164734666
1,2916927,-0.09794299304485321,0.0060209655202925205,-0.154768168926239,,,True,0.91119384765625,0.1441650390625,-0.0330810546875,-0.38446044921875,-0.0018864459341045759,-0.00020772216529019456,-0.0041459472324792464,-7.871527289289354e-05,-2.9792876092595125e-06,-0.000171206283969575
1,2926923,-0.10900801420211792,0.02726767212152481,-0.16070309281349182,,,True,0.91119384765625,0.14385986328125,-0.03265380859375,-0.384765625,-0.0027656825675770897,-0.0001255462423086652,-0.005695829459734768,-0.00010563642700568894,-4.20135473189206e-06,-0.00022664948793063323
1,2941426,-0.08783198148012161,0.06693052500486374,-0.16669218242168427,,,True,0.91131591796875,0.14300537109375,-0.03173828125,-0.384765625,-0.003782771956685708,0.00016920440360844425,-0.007345299652328064,-0.00014344901548471928,-2.509987513422051e-06,-0.0003000731032553046
1,2951966,-0.10053969919681549,0.06778942048549652,-0.15917351841926575,,,True,0.91156005859375,0.14178466796875,-0.030517578125,-0.38470458984375,-0.003782771956685708,0.00016920440360844425,-0.007345299652328064,-0.00014344901548471928,-2.509987513422051e-06,-0.0003000731032553046
1,2960907,-0.11430738121271133,0.07374972850084305,-0.16045056283473969,,,True,0.911865234375,0.14056396484375,-0.0291748046875,-0.3846435546875,-0.004965997037319932,0.0011771338011035213,-0.009793446268809515,-0.00021547087051697024,1.4561984003982319e-05,-0.00044210745449184896
1,2973622,-0.1147378534078598,0.08763428777456284,-0.16883039474487305,,,True,0.912353515625,0.1387939453125,-0.02691650390625,-0.38421630859375,-0.00596572003147252,0.0019072835761993487,-0.011500937280452522,-0.0002783495596486906,3.4664752897123456e-05,-0.0005633273334278185
1,2987655,-0.0794619619846344,0.0841217115521431,-0.15121658146381378,,,True,0.91302490234375,0.13671875,-0.02459716796875,-0.383544921875,-0.008336926907059776,0.003684221307127226,-0.015154526041261145,-0.00044640160301614854,0.00010450639955574472,-0.0008719472711624495
1,2996570,-0.06271965056657791,0.08028906583786011,-0.1393299549818039,,,True,0.9134521484375,0.1351318359375,-0.02301025390625,-0.3831787109375,-0.0094006483235912,0.004857923547360258,-0.01730646852285269,-0.0005783209009411038,0.00017267764069585123,-0.0011148089439436413
1,3006229,-0.043496180325746536,0.07428190112113953,-0.12936274707317352,,,True,0.91375732421875,0.13360595703125,-0.0218505859375,-0.38299560546875,-0.0094006483235912,0.004857923547360258,-0.01730646852285269,-0.0005783209009411038,0.00017267764069585123,-0.0011148089439436413
1,3015341,-0.023879829794168472,0.06536445021629333,-0.12041445076465607,,,True,0.9139404296875,0.1322021484375,-0.02099609375,-0.38311767578125,-0.009933013234278034,0.005566760242044824,-0.01856424320148617,-0.0006668737139246925,0.00022230530825368083,-0.0012803091720848905
1,3024837,-0.00997015181928873,0.054371125996112823,-0.10815520584583282,,,True,0.9140625,0.1309814453125,-0.0205078125,-0.38336181640625,-0.01032756282086525,0.006276598651804261,-0.01982640260731081,-0.00076662764321143,0.0002829309746314582,-0.0014718123948689057
1,3041073,0.0037835855036973953,0.041820377111434937,-0.08303524553775787,,,True,0.91400146484375,0.1292724609375,-0.02032470703125,-0.38397216796875,0.0,0.0,0.0,-0.000813680019423292,0.0003115271580890784,-0.0015621414851478138
1,3049566,0.006132241804152727,0.03483506292104721,-0.07737008482217789,,,True,0.9139404296875,0.1282958984375,-0.0205078125,-0.38446044921875,0.0,0.0,0.0,-0.000813680019423292,0.0003115271580890784,-0.0015621414851478138
1,3059735,0.009076914750039577,0.013661835342645645,-0.04586460441350937,,,True,0.913818359375,0.12744140625,-0.020751953125,-0.385009765625,0.0,0.0,0.0,-0.000813680019423292,0.0003115271580890784,-0.0015621414851478138
1,3073603,0.011621172539889812,-0.007772381883114576,-0.009571319445967674,,,True,0.91375732421875,0.12652587890625,-0.02093505859375,-0.385498046875,0.0,0.0,0.0,-0.000813680019423292,0.0003115271580890784,-0.0015621414851478138
1,3086058,0.014784169383347034,-0.029315004125237465,0.02639365755021572,,,True,0.9136962890625,0.125732421875,-0.02093505859375,-0.38592529296875,0.0,0.0,0.0,-0.000813680019423292,0.0003115271580890784,-0.0015621414851478138
1,3095459,0.018187589943408966,-0.03314170986413956,0.04873064532876015,,,True,0.91363525390625,0.1253662109375,-0.020751953125,-0.38616943359375,0.0,0.0,0.0,-0.000813680019423292,0.0003115271580890784,-0.0015621414851478138
1,3105383,0.021386682987213135,-0.036055900156497955,0.06763516366481781,,,True,0.91357421875,0.12506103515625,-0.0203857421875,-0.38641357421875,0.0,0.0,0.0,-0.000813680019423292,0.0003115271580890784,-0.0015621414851478138
1,3117032,0.023914068937301636,-0.03533970192074776,0.08005426079034805,,,True,0.9134521484375,0.125,-0.0196533203125,-0.38671875,0.0,0.0,0.0,-0.000813680019423292,0.0003115271580890784,-0.0015621414851478138
1,3129850,0.02388363890349865,-0.030803056433796883,0.0849076360464096,,,True,0.913330078125,0.1251220703125,-0.0189208984375,-0.38702392578125,0.0,0.0,0.0,-0.000813680019423292,0.0003115271580890784,-0.0015621414851478138
1,3141326,0.02259521372616291,-0.028063824400305748,0.07507609575986862,,,True,0.9132080078125,0.1253662109375,-0.018310546875,-0.3873291015625,0.0,0.0,0.0,-0.000813680019423292,0.0003115271580890784,-0.0015621414851478138
1,3152338,0.015929998829960823,-0.025832369923591614,0.06487138569355011,,,True,0.9129638671875,0.12567138671875,-0.0177001953125,-0.3878173828125,0.0,0.0,0.0,-0.000813680019423292,0.0003115271580890784,-0.0015621414851478138
1,3164790,0.006702594459056854,-0.02501232549548149,0.04608304798603058,,,True,0.9127197265625,0.12603759765625,-0.017333984375,-0.3883056640625,0.0,0.0,0.0,-0.000813680019423292,0.0003115271580890784,-0.0015621414851478138
1,3175302,-0.0014416389167308807,-0.027651360258460045,0.03083263896405697,,,True,0.9124755859375,0.12628173828125,-0.0172119140625,-0.38873291015625,0.0,0.0,0.0,-0.000813680019423292,0.0003115271580890784,-0.0015621414851478138
1,3188243,-0.012892719358205795,-0.031668152660131454,0.01607799530029297,,,True,0.91229248046875,0.12652587890625,-0.01715087890625,-0.38916015625,0.0,0.0,0.0,-0.000813680019423292,0.0003115271580890784,-0.0015621414851478138
1,3194787,-0.01690826006233692,-0.03321392461657524,0.011059875600039959,,,True,0.912109375,0.126708984375,-0.01727294921875,-0.3895263671875,0.0,0.0,0.0,-0.000813680019423292,0.0003115271580890784,-0.0015621414851478138
1,3207581,-0.027894096449017525,-0.03343780338764191,0.004292820114642382,,,True,0.91192626953125,0.1268310546875,-0.01739501953125,-0.38983154296875,0.0,0.0,0.0,-0.000813680019423292,0.0003115271580890784,-0.0015621414851478138
1,3219942,-0.03467366099357605,-0.03424838185310364,-0.0013942373916506767,,,True,0.91180419921875,0.126953125,-0.017578125,-0.39007568359375,0.0,0.0,0.0,-0.000813680019423292,0.0003115271580890784,-0.0015621414851478138
1,3230323,-0.036211494356393814,-0.036338306963443756,-0.00036617921432480216,,,True,0.9117431640625,0.1270751953125,-0.017578125,-0.39019775390625,0.0,0.0,0.0,-0.000813680019423292,0.0003115271580890784,-0.0015621414851478138
1,3239794,-0.039191264659166336,-0.03961438313126564,0.0005812792223878205,,,True,0.9117431640625,0.127197265625,-0.01763916015625,-0.3902587890625,0.0,0.0,0.0,-0.000813680019423292,0.0003115271580890784,-0.0015621414851478138
1,3253219,-0.04022617265582085,-0.04190952330827713,0.0033675285521894693,,,True,0.91168212890625,0.12738037109375,-0.0177001953125,-0.3902587890625,0.0,0.0,0.0,-0.000813680019423292,0.0003115271580890784,-0.0015621414851478138
1,3262204,-0.03982869163155556,-0.04260506480932236,0.007084764074534178,,,True,0.91162109375,0.12762451171875,-0.0177001953125,-0.3902587890625,0.0,0.0,0.0,-0.000813680019423292,0.0003115271580890784,-0.0015621414851478138
1,3274410,-0.042292628437280655,-0.04048498347401619,0.0031163960229605436,,,True,0.91162109375,0.1278076171875,-0.01776123046875,-0.39031982421875,0.0,0.0,0.0,-0.000813680019423292,0.0003115271580890784,-0.0015621414851478138
1,3284069,-0.041733138263225555,-0.04040471091866493,-0.0008341794018633664,,,True,0.91156005859375,0.1280517578125,-0.017822265625,-0.3902587890625,0.0,0.0,0.0,-0.000813680019423292,0.0003115271580890784,-0.0015621414851478138
1,3295348,-0.04428001120686531,-0.03901822865009308,-0.007325029466301203,,,True,0.91156005859375,0.1282958984375,-0.0179443359375,-0.3902587890625,0.0,0.0,0.0,-0.000813680019423292,0.0003115271580890784,-0.0015621414851478138
1,3306742,-0.04773087054491043,-0.03623258322477341,-0.015541217289865017,,,True,0.9114990234375,0.12841796875,-0.01806640625,-0.3902587890625,0.0,0.0,0.0,-0.000813680019423292,0.0003115271580890784,-0.0015621414851478138
1,3319001,-0.04772146791219711,-0.031318020075559616,-0.022087622433900833,,,True,0.9114990234375,0.1285400390625,-0.01824951171875,-0.39019775390625,0.0,0.0,0.0,-0.000813680019423292,0.0003115271580890784,-0.0015621414851478138
1,3332389,-0.04633314907550812,-0.02275543101131916,-0.02335546351969242,,,True,0.9114990234375,0.12872314453125,-0.0184326171875,-0.39019775390625,0.0,0.0,0.0,-0.000813680019423292,0.0003115271580890784,-0.0015621414851478138
1,3340680,-0.04514437913894653,-0.018215155228972435,-0.024555644020438194,,,True,0.9114990234375,0.12884521484375,-0.0185546875,-0.39013671875,0.0,0.0,0.0,-0.000813680019423292,0.0003115271580890784,-0.0015621414851478138
1,3350904,-0.04068630933761597,-0.014030837453901768,-0.021099232137203217,,,True,0.9114990234375,0.12896728515625,-0.01861572265625,-0.39019775390625,0.0,0.0,0.0,-0.000813680019423292,0.0003115271580890784,-0.0015621414851478138
1,3363258,-0.0371088907122612,-0.006798837799578905,-0.016416000202298164,,,True,0.91143798828125,0.12921142578125,-0.0186767578125,-0.3902587890625,0.0,0.0,0.0,-0.000813680019423292,0.0003115271580890784,-0.0015621414851478138
1,3372278,-0.03508080542087555,-0.0041220588609576225,-0.015160235576331615,,,True,0.91131591796875,0.12945556640625,-0.01873779296875,-0.39031982421875,0.0,0.0,0.0,-0.000813680019423292,0.0003115271580890784,-0.0015621414851478138
1,3384198,-0.034189000725746155,-0.0011076838709414005,-0.012724056839942932,,,True,0.9112548828125,0.12969970703125,-0.018798828125,-0.390380859375,0.0,0.0,0.0,-0.000813680019423292,0.0003115271580890784,-0.0015621414851478138
1,3397563,-0.03339999169111252,-0.00022875786817166954,-0.016571180894970894,,,True,0.91119384765625,0.1300048828125,-0.01885986328125,-0.3905029296875,0.0,0.0,0.0,-0.000813680019423292,0.0003115271580890784,-0.0015621414851478138
1,3410167,-0.030475180596113205,0.00560792675241828,-0.02065950073301792,,,True,0.91107177734375,0.13018798828125,-0.01885986328125,-0.390625,0.0,0.0,0.0,-0.000813680019423292,0.0003115271580890784,-0.0015621414851478138
1,3424268,-0.02807473950088024,0.013203784823417664,-0.028183704242110252,,,True,0.9110107421875,0.13031005859375,-0.01885986328125,-0.3907470703125,0.0,0.0,0.0,-0.000813680019423292,0.0003115271580890784,-0.0015621414851478138
1,3437762,-0.027328481897711754,0.019336113706231117,-0.03484063968062401,,,True,0.91094970703125,0.13037109375,-0.01898193359375,-0.390869140625,0.0,0.0,0.0,-0.000813680019423292,0.0003115271580890784,-0.0015621414851478138
1,3449997,-0.024879679083824158,0.022713912650942802,-0.037184134125709534,,,True,0.91094970703125,0.13043212890625,-0.01910400390625,-0.39093017578125,0.0,0.0,0.0,-0.000813680019423292,0.0003115271580890784,-0.0015621414851478138
1,3463365,-0.022174198180437088,0.03070581704378128,-0.037850890308618546,,,True,0.910888671875,0.1304931640625,-0.01922607421875,-0.39105224609375,0.0,0.0,0.0,-0.000813680019423292,0.0003115271580890784,-0.0015621414851478138
1,3474533,-0.017679492011666298,0.03384222835302353,-0.03607713058590889,,,True,0.91082763671875,0.1304931640625,-0.01934814453125,-0.39111328125,0.0,0.0,0.0,-0.000813680019423292,0.0003115271580890784,-0.0015621414851478138
1,3484793,-0.013537169434130192,0.036670248955488205,-0.029817434027791023,,,True,0.9107666015625,0.13055419921875,-0.01947021484375,-0.3912353515625,0.0,0.0,0.0,-0.000813680019423292,0.0003115271580890784,-0.0015621414851478138
1,3494280,-0.008982106111943722,0.03841405361890793,-0.02567349746823311,,,True,0.91070556640625,0.130615234375,-0.01959228515625,-0.391357421875,0.0,0.0,0.0,-0.000813680019423292,0.0003115271580890784,-0.0015621414851478138
1,3506315,-0.006357542704790831,0.039478547871112823,-0.020824017003178596,,,True,0.91058349609375,0.1307373046875,-0.01971435546875,-0.39154052734375,0.0,0.0,0.0,-0.000813680019423292,0.0003115271580890784,-0.0015621414851478138
1,3516815,-0.005277861375361681,0.04063967987895012,-0.017322665080428123,,,True,0.9105224609375,0.130859375,-0.019775390625,-0.39166259765625,0.0,0.0,0.0,-0.000813680019423292,0.0003115271580890784,-0.0015621414851478138
1,3527573,-0.002720327116549015,0.040847279131412506,-0.01259581744670868,,,True,0.91046142578125,0.1309814453125,-0.019775390625,-0.39178466796875,0.0,0.0,0.0,-0.000813680019423292,0.0003115271580890784,-0.0015621414851478138
1,3540147,-0.005320021416991949,0.041452806442976,-0.01225622370839119,,,True,0.910400390625,0.131103515625,-0.019775390625,-0.39190673828125,0.0,0.0,0.0,-0.000813680019423292,0.0003115271580890784,-0.0015621414851478138
1,3551715,-0.007384181953966618,0.04209040477871895,-0.013439085334539413,,,True,0.91033935546875,0.13128662109375,-0.01983642578125,-0.39202880859375,0.0,0.0,0.0,-0.000813680019423292,0.0003115271580890784,-0.0015621414851478138
1,3561735,-0.0077240122482180595,0.04277176782488823,-0.014216710813343525,,,True,0.9102783203125,0.13140869140625,-0.01983642578125,-0.39215087890625,0.0,0.0,0.0,-0.000813680019423292,0.0003115271580890784,-0.0015621414851478138
1,3571947,-0.008037200197577477,0.040024712681770325,-0.01738961972296238,,,True,0.91021728515625,0.13153076171875,-0.0198974609375,-0.3922119140625,0.0,0.0,0.0,-0.000813680019423292,0.0003115271580890784,-0.0015621414851478138
1,3584839,-0.008461550809442997,0.039463553577661514,-0.016136473044753075,,,True,0.91015625,0.13165283203125,-0.02001953125,-0.39227294921875,0.0,0.0,0.0,-0.000813680019423292,0.0003115271580890784,-0.0015621414851478138
1,3593210,-0.008591839112341404,0.03929126262664795,-0.01627226360142231,,,True,0.91009521484375,0.1317138671875,-0.0201416015625,-0.39239501953125,0.0,0.0,0.0,-0.000813680019423292,0.0003115271580890784,-0.0015621414851478138
1,3603253,-0.005774488672614098,0.0389670804142952,-0.014965267851948738,,,True,0.9100341796875,0.1318359375,-0.02020263671875,-0.3924560546875,0.0,0.0,0.0,-0.000813680019423292,0.0003115271580890784,-0.0015621414851478138
1,3616743,-0.007072147913277149,0.03341282904148102,-0.012551560997962952,,,True,0.90997314453125,0.1319580078125,-0.02032470703125,-0.392578125,0.0,0.0,0.0,-0.000813680019423292,0.0003115271580890784,-0.0015621414851478138
1,3628671,-0.008048941381275654,0.028312012553215027,-0.011598768644034863,,,True,0.909912109375,0.13214111328125,-0.0203857421875,-0.39263916015625,0.0,0.0,0.0,-0.000813680019423292,0.0003115271580890784,-0.0015621414851478138
1,3638195,-0.007386654149740934,0.024248601868748665,-0.010658174753189087,,,True,0.909912109375,0.13226318359375,-0.02044677734375,-0.39263916015625,0.0,0.0,0.0,-0.000813680019423292,0.0003115271580890784,-0.0015621414851478138
1,3652392,-0.0028777390252798796,0.018301861360669136,-0.010180921293795109,,,True,0.90985107421875,0.1324462890625,-0.0205078125,-0.3927001953125,0.0,0.0,0.0,-0.000813680019423292,0.0003115271580890784,-0.0015621414851478138
1,3663187,-0.0011208743089810014,0.017173245549201965,-0.009351487271487713,,,True,0.9097900390625,0.1326904296875,-0.0206298828125,-0.39276123046875,0.0,0.0,0.0,-0.000813680019423292,0.0003115271580890784,-0.0015621414851478138
1,3676147,0.001165822148323059,0.012269037775695324,-0.0068498472683131695,,,True,0.90966796875,0.13299560546875,-0.02081298828125,-0.3929443359375,0.0,0.0,0.0,-0.000813680019423292,0.0003115271580890784,-0.0015621414851478138
1,3687268,0.0053619216196238995,0.011000895872712135,-0.004169069230556488,,,True,0.90948486328125,0.1334228515625,-0.02105712890625,-0.3931884765625,0.0,0.0,0.0,-0.000813680019423292,0.0003115271580890784,-0.0015621414851478138
1,3704391,0.01305948942899704,0.0027631036937236786,-0.003743954701349139,,,True,0.90924072265625,0.1339111328125,-0.02130126953125,-0.3935546875,0.0,0.0,0.0,-0.000813680019423292,0.0003115271580890784,-0.0015621414851478138
1,3715738,0.020948125049471855,-0.011203523725271225,0.0005683213239535689,,,True,0.90887451171875,0.13446044921875,-0.02154541015625,-0.3941650390625,0.0,0.0,0.0,-0.000813680019423292,0.0003115271580890784,-0.0015621414851478138
1,3730401,0.030779561027884483,0.000998338800854981,0.00911756418645382,,,True,0.908447265625,0.13507080078125,-0.021728515625,-0.39501953125,0.0,0.0,0.0,-0.000813680019423292,0.0003115271580890784,-0.0015621414851478138
1,3744911,0.034687284380197525,0.01624026522040367,0.011108887381851673,,,True,0.90777587890625,0.135986328125,-0.02197265625,-0.39617919921875,0.0,0.0,0.0,-0.000813680019423292,0.0003115271580890784,-0.0015621414851478138
1,3757744,0.03137784078717232,0.034979093819856644,0.0037634323816746473,,,True,0.9072265625,0.13665771484375,-0.0220947265625,-0.397216796875,0.0,0.0,0.0,-0.000813680019423292,0.0003115271580890784,-0.0015621414851478138
1,3771035,0.02793656848371029,0.04448048025369644,-0.006969120353460312,,,True,0.9066162109375,0.13726806640625,-0.02203369140625,-0.3983154296875,0.0,0.0,0.0,-0.000813680019423292,0.0003115271580890784,-0.0015621414851478138
1,3784529,0.011886238120496273,0.05134798213839531,-0.021712832152843475,,,True,0.90625,0.13763427734375,-0.02191162109375,-0.39910888671875,0.0,0.0,0.0,-0.000813680019423292,0.0003115271580890784,-0.0015621414851478138
1,3798974,-0.00776031706482172,0.04065965861082077,-0.03126462176442146,,,True,0.906005859375,0.1376953125,-0.02166748046875,-0.39971923828125,0.0,0.0,0.0,-0.000813680019423292,0.0003115271580890784,-0.0015621414851478138
1,3810887,-0.0243644081056118,0.02267819084227085,-0.030650975182652473,,,True,0.90594482421875,0.1375732421875,-0.0213623046875,-0.39990234375,0.0,0.0,0.0,-0.000813680019423292,0.0003115271580890784,-0.0015621414851478138
1,3823694,-0.05403507128357887,-0.01412028819322586,-0.032759521156549454,,,True,0.90606689453125,0.13726806640625,-0.02099609375,-0.399658203125,0.0,0.0,0.0,-0.000813680019423292,0.0003115271580890784,-0.0015621414851478138
1,3833112,-0.07827997207641602,-0.040263257920742035,-0.03815367445349693,,,True,0.90643310546875,0.13690185546875,-0.0206298828125,-0.3990478515625,0.0,0.0,0.0,-0.000813680019423292,0.0003115271580890784,-0.0015621414851478138
1,3844894,-0.11857286095619202,-0.0895456001162529,-0.04930293187499046,,,True,0.90692138671875,0.13641357421875,-0.02020263671875,-0.39813232421875,0.0,0.0,0.0,-0.000813680019423292,0.0003115271580890784,-0.0015621414851478138
1,3858330,-0.1527814418077469,-0.13517996668815613,-0.05316457897424698,,,True,0.90802001953125,0.13543701171875,-0.01947021484375,-0.39593505859375,0.0,0.0,0.0,-0.000813680019423292,0.0003115271580890784,-0.0015621414851478138
1,3868213,-0.1616908758878708,-0.1616818606853485,-0.0538339763879776,,,True,0.908935546875,0.134765625,-0.01898193359375,-0.39410400390625,0.0,0.0,0.0,-0.000813680019423292,0.0003115271580890784,-0.0015621414851478138
1,3877948,-0.1655518114566803,-0.16523100435733795,-0.04866964370012283,,,True,0.90997314453125,0.13409423828125,-0.0185546875,-0.3919677734375,0.0,0.0,0.0,-0.000813680019423292,0.0003115271580890784,-0.0015621414851478138
1,3890252,-0.15596438944339752,-0.15950456261634827,-0.03834553435444832,,,True,0.91094970703125,0.13348388671875,-0.0181884765625,-0.38983154296875,0.0,0.0,0.0,-0.000813680019423292,0.0003115271580890784,-0.0015621414851478138
1,3900313,-0.1262492835521698,-0.14883066713809967,-0.02291424386203289,,,True,0.91217041015625,0.13287353515625,-0.01788330078125,-0.3873291015625,0.0,0.0,0.0,-0.000813680019423292,0.0003115271580890784,-0.0015621414851478138
1,3913683,-0.08612228184938431,-0.10727360099554062,0.002912942785769701,,,True,0.9130859375,0.1326904296875,-0.01776123046875,-0.38519287109375,0.0,0.0,0.0,-0.000813680019423292,0.0003115271580890784,-0.0015621414851478138
1,3926834,-0.028781987726688385,-0.05037931725382805,0.02507493458688259,,,True,0.9136962890625,0.13287353515625,-0.017822265625,-0.38360595703125,0.0,0.0,0.0,-0.000813680019423292,0.0003115271580890784,-0.0015621414851478138
1,3935744,0.008999519050121307,-0.003554578870534897,0.03167780861258507,,,True,0.91400146484375,0.13323974609375,-0.0179443359375,-0.38275146484375,0.0,0.0,0.0,-0.000813680019423292,0.0003115271580890784,-0.0015621414851478138
1,3946040,0.03956270590424538,0.039286598563194275,0.030088016763329506,,,True,0.91412353515625,0.13372802734375,-0.0181884765625,-0.38232421875,0.0,0.0,0.0,-0.000813680019423292,0.0003115271580890784,-0.0015621414851478138
1,3960996,0.09648447483778,0.1127900779247284,0.015167753212153912,,,True,0.9140625,0.13446044921875,-0.01849365234375,-0.3822021484375,0.0,0.0,0.0,-0.000813680019423292,0.0003115271580890784,-0.0015621414851478138
1,3971198,0.11400134116411209,0.13974733650684357,0.010916100814938545,,,True,0.9139404296875,0.134765625,-0.01873779296875,-0.38238525390625,0.0,0.0,0.0,-0.000813680019423292,0.0003115271580890784,-0.0015621414851478138
1,3981181,0.12105114012956619,0.1564473956823349,0.0060477787628769875,,,True,0.91375732421875,0.135009765625,-0.01885986328125,-0.38275146484375,-0.0013785884805435423,-0.0010444243833990347,-0.0006409851505512179,-0.000829922548901056,0.000299221750003871,-0.0015696935721916082
1,3993480,0.12511980533599854,0.17300988733768463,0.0016586878336966038,,,True,0.91351318359375,0.13519287109375,-0.0189208984375,-0.38323974609375,-0.008427520127209267,-0.008072170067937525,-0.0031007040649320703,-0.001092280986599059,5.8191352249947404e-05,-0.0016722335220090397
1,4009758,0.11689665168523788,0.17563501000404358,0.00493729067966342,,,True,0.9132080078125,0.13531494140625,-0.0186767578125,-0.38385009765625,-0.008427520127209267,-0.008072170067937525,-0.0031007040649320703,-0.001092280986599059,5.8191352249947404e-05,-0.0016722335220090397
1,4018744,0.1111007034778595,0.16799023747444153,0.007918956689536572,,,True,0.91302490234375,0.1353759765625,-0.0184326171875,-0.38433837890625,-0.008427520127209267,-0.008072170067937525,-0.0031007040649320703,-0.001092280986599059,5.8191352249947404e-05,-0.0016722335220090397
1,4032359,0.09629504382610321,0.1478087604045868,0.011958936229348183,,,True,0.9127197265625,0.13568115234375,-0.01812744140625,-0.38494873046875,-0.004830109827487218,-0.004797071689828904,-0.0016852165962545152,-0.0011894724565477566,-3.833532429278981e-05,-0.001706143450358873
1,4045184,0.07809144258499146,0.12671948969364166,0.012470751069486141,,,True,0.91241455078125,0.13604736328125,-0.01788330078125,-0.3856201171875,0.0,0.0,0.0,-0.0011894724565477566,-3.833532429278981e-05,-0.001706143450358873
1,4056699,0.06216907128691673,0.10879093408584595,0.008830543607473373,,,True,0.91204833984375,0.13641357421875,-0.017822265625,-0.38629150390625,0.0,0.0,0.0,-0.0011894724565477566,-3.833532429278981e-05,-0.001706143450358873
1,4067679,0.03597021475434303,0.0850435122847557,-0.0046042995527386665,,,True,0.91180419921875,0.13671875,-0.01788330078125,-0.38677978515625,0.0,0.0,0.0,-0.0011894724565477566,-3.833532429278981e-05,-0.001706143450358873
1,4079793,0.01043914444744587,0.06038280576467514,-0.023345088586211205,,,True,0.91156005859375,0.13702392578125,-0.01806640625,-0.38726806640625,0.0,0.0,0.0,-0.0011894724565477566,-3.833532429278981e-05,-0.001706143450358873
1,4091140,-0.004741784185171127,0.04493004456162453,-0.03410233184695244,,,True,0.911376953125,0.13720703125,-0.01837158203125,-0.3875732421875,0.0,0.0,0.0,-0.0011894724565477566,-3.833532429278981e-05,-0.001706143450358873
1,4101907,-0.02013697661459446,0.030057478696107864,-0.04187805950641632,,,True,0.91131591796875,0.13726806640625,-0.01873779296875,-0.38763427734375,0.0,0.0,0.0,-0.0011894724565477566,-3.833532429278981e-05,-0.001706143450358873
1,4111878,-0.024651987478137016,0.022400973364710808,-0.04655731841921806,,,True,0.91131591796875,0.13726806640625,-0.0191650390625,-0.3876953125,0.0,0.0,0.0,-0.0011894724565477566,-3.833532429278981e-05,-0.001706143450358873
1,4123150,-0.02671475149691105,0.013570946641266346,-0.04533243551850319,,,True,0.91131591796875,0.13726806640625,-0.01959228515625,-0.38763427734375,0.0,0.0,0.0,-0.0011894724565477566,-3.833532429278981e-05,-0.001706143450358873
1,4132432,-0.023927411064505577,0.014590608887374401,-0.041487887501716614,,,True,0.911376953125,0.13720703125,-0.02001953125,-0.3875732421875,0.0,0.0,0.0,-0.0008538364451258673,0.0004501108818378895,-0.0016741320154293002
1,4142833,-0.01632344163954258,0.017411336302757263,-0.03379257768392563,,,True,0.911376953125,0.13714599609375,-0.0205078125,-0.38751220703125,0.0,0.0,0.0,-0.0008538364451258673,0.0004501108818378895,-0.0016741320154293002
1,4151930,-0.01426425389945507,0.019839882850646973,-0.02884712442755699,,,True,0.911376953125,0.13714599609375,-0.0208740234375,-0.38751220703125,0.0,0.0,0.0,-0.0008538364451258673,0.0004501108818378895,-0.0016741320154293002
1,4161954,-0.008062099106609821,0.02565755881369114,-0.01672884076833725,,,True,0.911376953125,0.13714599609375,-0.02117919921875,-0.38751220703125,0.0,0.0,0.0,-0.0008538364451258673,0.0004501108818378895,-0.0016741320154293002
1,4175095,-0.0035315793938934803,0.03386716544628143,-0.011949856765568256,,,True,0.911376953125,0.13726806640625,-0.021484375,-0.387451171875,0.0,0.0,0.0,-0.0008538364451258673,0.0004501108818378895,-0.0016741320154293002
1,4186967,-0.0029857654590159655,0.03439300134778023,-0.009221717715263367,,,True,0.911376953125,0.13726806640625,-0.02166748046875,-0.38739013671875,0.0,0.0,0.0,-0.0008538364451258673,0.0004501108818378895,-0.0016741320154293002
1,4202690,-0.0022704796865582466,0.028357619419693947,-0.004684563726186752,,,True,0.91143798828125,0.13726806640625,-0.0218505859375,-0.38720703125,0.0,0.0,0.0,-0.0008538364451258673,0.0004501108818378895,-0.0016741320154293002
1,4212266,-0.0014862240059301257,0.02184688299894333,-0.004748544190078974,,,True,0.91156005859375,0.13720703125,-0.02191162109375,-0.38702392578125,0.0,0.0,0.0,-0.0008538364451258673,0.0004501108818378895,-0.0016741320154293002
1,4221294,-0.0010634540813043714,0.01584658771753311,-0.006213758140802383,,,True,0.91162109375,0.13720703125,-0.02203369140625,-0.38677978515625,0.0,0.0,0.0,-0.0008538364451258673,0.0004501108818378895,-0.0016741320154293002
1,4235133,0.0022656237706542015,0.012219046242535114,-0.005442785564810038,,,True,0.9117431640625,0.13714599609375,-0.02215576171875,-0.38653564453125,0.0,0.0,0.0,-0.0008538364451258673,0.0004501108818378895,-0.0016741320154293002
1,4247687,0.013399478048086166,0.009132130071520805,0.0010378214064985514,,,True,0.911865234375,0.13714599609375,-0.02227783203125,-0.38629150390625,0.0,0.0,0.0,-0.0008538364451258673,0.0004501108818378895,-0.0016741320154293002
1,4256651,0.017861459404230118,0.013316171243786812,0.004937706049531698,,,True,0.911865234375,0.13714599609375,-0.0224609375,-0.38623046875,0.0,0.0,0.0,-0.0008538364451258673,0.0004501108818378895,-0.0016741320154293002
1,4267070,0.02292362041771412,0.017172183841466904,0.008531839586794376,,,True,0.911865234375,0.13726806640625,-0.02252197265625,-0.38616943359375,0.0,0.0,0.0,-0.0008538364451258673,0.0004501108818378895,-0.0016741320154293002
1,4279148,0.027485350146889687,0.017581850290298462,0.015154175460338593,,,True,0.911865234375,0.137451171875,-0.022705078125,-0.38616943359375,0.0,0.0,0.0,-0.0008538364451258673,0.0004501108818378895,-0.0016741320154293002
1,4291745,0.029898779466748238,0.018918795511126518,0.01859869435429573,,,True,0.91180419921875,0.13763427734375,-0.02276611328125,-0.38623046875,0.0,0.0,0.0,-0.0008538364451258673,0.0004501108818378895,-0.0016741320154293002
1,4302727,0.02639777772128582,0.019666638225317,0.0187061820179224,,,True,0.9117431640625,0.1378173828125,-0.02276611328125,-0.38623046875,0.0,0.0,0.0,-0.0008538364451258673,0.0004501108818378895,-0.0016741320154293002
1,4314020,0.01878444291651249,0.014112275093793869,0.012952118180692196,,,True,0.9117431640625,0.1380615234375,-0.02276611328125,-0.38616943359375,0.0,0.0,0.0,-0.0008538364451258673,0.0004501108818378895,-0.0016741320154293002
1,4326313,0.007164022885262966,0.004068638663738966,0.0035932057071477175,,,True,0.91180419921875,0.13818359375,-0.02276611328125,-0.38604736328125,0.0,0.0,0.0,-0.0008538364451258673,0.0004501108818378895,-0.0016741320154293002
1,4333963,0.00203371187672019,-0.0006253567407839,0.0012619774788618088,,,True,0.911865234375,0.13824462890625,-0.02288818359375,-0.3858642578125,0.0,0.0,0.0,-0.0008538364451258673,0.0004501108818378895,-0.0016741320154293002
1,4345356,-0.00705645140260458,-0.012314525432884693,-0.002184482989832759,,,True,0.9119873046875,0.13836669921875,-0.02301025390625,-0.38555908203125,0.0,0.0,0.0,-0.0008538364451258673,0.0004501108818378895,-0.0016741320154293002
1,4354193,-0.009117943234741688,-0.017915694043040276,-0.002722103614360094,,,True,0.912109375,0.13836669921875,-0.023193359375,-0.38525390625,0.0,0.0,0.0,-0.0008538364451258673,0.0004501108818378895,-0.0016741320154293002
1,4365169,-0.014820722863078117,-0.031248409301042557,-0.0014530931366607547,,,True,0.9122314453125,0.13848876953125,-0.02349853515625,-0.38482666015625,0.0,0.0,0.0,-0.0008538364451258673,0.0004501108818378895,-0.0016741320154293002
1,4376232,-0.018865028396248817,-0.03890478238463402,0.003254579147323966,,,True,0.91241455078125,0.138671875,-0.02392578125,-0.38433837890625,0.0,0.0,0.0,-0.0008538364451258673,0.0004501108818378895,-0.0016741320154293002
1,4389688,-0.023682819679379463,-0.04397645965218544,0.008555693551898003,,,True,0.91259765625,0.138916015625,-0.02435302734375,-0.38372802734375,0.0,0.0,0.0,-0.0008538364451258673,0.0004501108818378895,-0.0016741320154293002
1,4401443,-0.027057792991399765,-0.04761155694723129,0.015223780646920204,,,True,0.912841796875,0.1392822265625,-0.02484130859375,-0.38311767578125,0.0,0.0,0.0,-0.0008538364451258673,0.0004501108818378895,-0.0016741320154293002
1,4412494,-0.028917711228132248,-0.045078810304403305,0.01476773526519537,,,True,0.9129638671875,0.1395263671875,-0.0252685546875,-0.38250732421875,0.0,0.0,0.0,-0.0008538364451258673,0.0004501108818378895,-0.0016741320154293002
1,4421454,-0.029594311490654945,-0.04029463231563568,0.013309944421052933,,,True,0.9132080078125,0.13983154296875,-0.025634765625,-0.3819580078125,0.0,0.0,0.0,-0.0008538364451258673,0.0004501108818378895,-0.0016741320154293002
1,4435378,-0.02949715219438076,-0.02860836312174797,0.013182037509977818,,,True,0.91339111328125,0.14013671875,-0.02606201171875,-0.3812255859375,0.0,0.0,0.0,-0.0008538364451258673,0.0004501108818378895,-0.0016741320154293002
1,4447370,-0.024246690794825554,-0.01670759916305542,0.014418873004615307,,,True,0.91363525390625,0.14044189453125,-0.02642822265625,-0.380615234375,0.0,0.0,0.0,-0.0008538364451258673,0.0004501108818378895,-0.0016741320154293002
1,4456817,-0.019895751029253006,-0.007403973489999771,0.016044683754444122,,,True,0.913818359375,0.1407470703125,-0.02691650390625,-0.3800048828125,0.0,0.0,0.0,-0.0008538364451258673,0.0004501108818378895,-0.0016741320154293002
1,4470258,-0.009810488671064377,0.013759187422692776,0.012945309281349182,,,True,0.91400146484375,0.14117431640625,-0.02728271484375,-0.37939453125,0.0,0.0,0.0,-0.0008538364451258673,0.0004501108818378895,-0.0016741320154293002
1,4479462,0.003239903599023819,0.03414296731352806,0.009542896412312984,,,True,0.9140625,0.1414794921875,-0.02752685546875,-0.37908935546875,0.0,0.0,0.0,-0.0008538364451258673,0.0004501108818378895,-0.0016741320154293002
1,4490762,0.018079645931720734,0.05937865749001503,0.009507233276963234,,,True,0.91412353515625,0.1417236328125,-0.02764892578125,-0.37890625,0.0,0.0,0.0,-0.0008538364451258673,0.0004501108818378895,-0.0016741320154293002
1,4500707,0.03745594993233681,0.08568587154150009,0.002299366518855095,,,True,0.9140625,0.141845703125,-0.0277099609375,-0.37890625,0.0,0.0,0.0,-0.0008538364451258673,0.0004501108818378895,-0.0016741320154293002
1,4512503,0.04896940290927887,0.10894309729337692,-0.0012809038162231445,,,True,0.91400146484375,0.14208984375,-0.0277099609375,-0.37908935546875,0.0,0.0,0.0,-0.0008538364451258673,0.0004501108818378895,-0.0016741320154293002
1,4525888,0.06079549342393875,0.1311313807964325,-0.014941762201488018,,,True,0.913818359375,0.1422119140625,-0.027587890625,-0.37933349609375,0.0,0.0,0.0,-0.0008538364451258673,0.0004501108818378895,-0.0016741320154293002
1,4539523,0.06602095812559128,0.13284140825271606,-0.026965515688061714,,,True,0.9136962890625,0.14215087890625,-0.0274658203125,-0.37969970703125,0.0,0.0,0.0,-0.0008538364451258673,0.0004501108818378895,-0.0016741320154293002
1,4551551,0.06696991622447968,0.12622663378715515,-0.030326418578624725,,,True,0.91363525390625,0.14202880859375,-0.02740478515625,-0.3800048828125,0.0008450513601097278,0.0018515534474242718,-0.0002897510123637081,-0.0008423141698307712,0.0004753568130935194,-0.0016780827704828793
1,4559997,0.0656694695353508,0.11816796660423279,-0.02856132760643959,,,True,0.91351318359375,0.14190673828125,-0.02740478515625,-0.38018798828125,0.0,0.0,0.0,-0.0008423141698307712,0.0004753568130935194,-0.0016780827704828793
1,4575970,0.06138963997364044,0.10213395208120346,-0.02190498448908329,,,True,0.9134521484375,0.14178466796875,-0.02728271484375,-0.38043212890625,0.0,0.0,0.0,-0.0008423141698307712,0.0004753568130935194,-0.0016780827704828793
1,4588088,0.0614766925573349,0.09260164946317673,-0.013418884947896004,,,True,0.91339111328125,0.1417236328125,-0.02728271484375,-0.380615234375,0.0,0.0,0.0,-0.0008423141698307712,0.0004753568130935194,-0.0016780827704828793
1,4603774,0.05868595466017723,0.07982787489891052,-0.009980103000998497,,,True,0.91326904296875,0.141845703125,-0.0272216796875,-0.380859375,0.0,0.0,0.0,-0.0008423141698307712,0.0004753568130935194,-0.0016780827704828793
1,4611736,0.05665101483464241,0.07991600781679153,-0.008487149141728878,,,True,0.9132080078125,0.1419677734375,-0.02728271484375,-0.38104248046875,0.0,0.0,0.0,-0.0008423141698307712,0.0004753568130935194,-0.0016780827704828793
1,4625100,0.053134191781282425,0.07925932109355927,-0.007508886978030205,,,True,0.9130859375,0.14208984375,-0.02728271484375,-0.3812255859375,0.0,0.0,0.0,-0.0008423141698307712,0.0004753568130935194,-0.0016780827704828793
1,4635656,0.053255971521139145,0.07825164496898651,-0.009982690215110779,,,True,0.91302490234375,0.1422119140625,-0.02728271484375,-0.38134765625,0.0,0.0,0.0,-0.0008423141698307712,0.0004753568130935194,-0.0016780827704828793
1,4647599,0.05493070185184479,0.07819797098636627,-0.012262547388672829,,,True,0.91290283203125,0.142333984375,-0.02734375,-0.381591796875,0.0,0.0,0.0,-0.0008423141698307712,0.0004753568130935194,-0.0016780827704828793
1,4658586,0.0525621697306633,0.07382580637931824,-0.012289117090404034,,,True,0.912841796875,0.14239501953125,-0.02740478515625,-0.38177490234375,0.0,0.0,0.0,-0.0008423141698307712,0.0004753568130935194,-0.0016780827704828793
1,4668287,0.05055379495024681,0.0705191120505333,-0.014388150535523891,,,True,0.9127197265625,0.1424560546875,-0.02740478515625,-0.38189697265625,0.0,0.0,0.0,-0.0008423141698307712,0.0004753568130935194,-0.0016780827704828793
1,4678588,0.05332787707448006,0.06529666483402252,-0.014822619967162609,,,True,0.91265869140625,0.14251708984375,-0.0274658203125,-0.382080078125,0.0,0.0,0.0,-0.0008423141698307712,0.0004753568130935194,-0.0016780827704828793
1,4688301,0.056834470480680466,0.06354615837335587,-0.013660525903105736,,,True,0.91253662109375,0.14263916015625,-0.0274658203125,-0.38226318359375,0.0,0.0,0.0,-0.0008423141698307712,0.0004753568130935194,-0.0016780827704828793
1,4698573,0.060003649443387985,0.06468288600444794,-0.011183290742337704,,,True,0.9124755859375,0.14276123046875,-0.0274658203125,-0.38250732421875,0.0,0.0,0.0,-0.0008423141698307712,0.0004753568130935194,-0.0016780827704828793
1,4709267,0.06298685818910599,0.06818049401044846,-0.008956520818173885,,,True,0.91229248046875,0.14288330078125,-0.0274658203125,-0.38287353515625,0.0,0.0,0.0,-0.0008423141698307712,0.0004753568130935194,-0.0016780827704828793
1,4721596,0.06767173856496811,0.07391849160194397,-0.004665656480938196,,,True,0.912109375,0.14306640625,-0.0274658203125,-0.38323974609375,0.0,0.0,0.0,-0.0008423141698307712,0.0004753568130935194,-0.0016780827704828793
1,4732101,0.06842877715826035,0.07607953250408173,-0.002337368903681636,,,True,0.911865234375,0.143310546875,-0.02740478515625,-0.38372802734375,0.0,0.0,0.0,-0.0008423141698307712,0.0004753568130935194,-0.0016780827704828793
1,4741004,0.06306396424770355,0.07470864802598953,-0.0046041193418204784,,,True,0.91156005859375,0.14361572265625,-0.02734375,-0.38427734375,0.0,0.0,0.0,-0.0008423141698307712,0.0004753568130935194,-0.0016780827704828793
1,4751907,0.057169750332832336,0.06700773537158966,-0.00825565680861473,,,True,0.9112548828125,0.14385986328125,-0.0272216796875,-0.3848876953125,0.0,0.0,0.0,-0.0008423141698307712,0.0004753568130935194,-0.0016780827704828793
1,4763103,0.040763888508081436,0.04901765659451485,-0.01847107708454132,,,True,0.91107177734375,0.14404296875,-0.0272216796875,-0.38531494140625,0.0,0.0,0.0,-0.0008423141698307712,0.0004753568130935194,-0.0016780827704828793
1,4774575,0.025286750867962837,0.03258717432618141,-0.027097946032881737,,,True,0.91094970703125,0.14410400390625,-0.02716064453125,-0.3856201171875,0.0,0.0,0.0,-0.0008423141698307712,0.0004753568130935194,-0.0016780827704828793
1,4790841,-0.003442334244027734,-0.0023952352348715067,-0.0349307656288147,,,True,0.91094970703125,0.14404296875,-0.0272216796875,-0.3856201171875,0.0,0.0,0.0,-0.0008423141698307712,0.0004753568130935194,-0.0016780827704828793
1,4799515,-0.013891205191612244,-0.022113697603344917,-0.031579695641994476,,,True,0.9110107421875,0.14398193359375,-0.02728271484375,-0.385498046875,0.0,0.0,0.0,-0.0008423141698307712,0.0004753568130935194,-0.0016780827704828793
1,4813238,-0.022296300157904625,-0.043012283742427826,-0.02148694358766079,,,True,0.9111328125,0.14398193359375,-0.02740478515625,-0.38519287109375,0.0,0.0,0.0,-0.0008423141698307712,0.0004753568130935194,-0.0016780827704828793
1,4825415,-0.02738058939576149,-0.05457601696252823,-0.01779727078974247,,,True,0.9112548828125,0.14410400390625,-0.02764892578125,-0.38482666015625,0.0,0.0,0.0,-0.0008423141698307712,0.0004753568130935194,-0.0016780827704828793
1,4841147,-0.023713529109954834,-0.0513320192694664,-0.013080430217087269,,,True,0.911376953125,0.14447021484375,-0.02801513671875,-0.38433837890625,0.0,0.0,0.0,-0.0008423141698307712,0.0004753568130935194,-0.0016780827704828793
1,4851936,-0.018791887909173965,-0.04575134068727493,-0.009423674084246159,,,True,0.91143798828125,0.144775390625,-0.02838134765625,-0.384033203125,0.0,0.0,0.0,-0.0008423141698307712,0.0004753568130935194,-0.0016780827704828793
1,4862894,-0.007933360524475574,-0.02691485919058323,-0.011038963682949543,,,True,0.9114990234375,0.14501953125,-0.02862548828125,-0.38372802734375,0.0,0.0,0.0,-0.0008423141698307712,0.0004753568130935194,-0.0016780827704828793
1,4872579,0.0012636149767786264,-0.01439223438501358,-0.012011009268462658,,,True,0.91156005859375,0.145263671875,-0.02880859375,-0.383544921875,0.0,0.0,0.0,-0.0008423141698307712,0.0004753568130935194,-0.0016780827704828793
1,4885341,0.0177772156894207,0.013129670172929764,-0.012427572160959244,,,True,0.91162109375,0.14556884765625,-0.02899169921875,-0.38330078125,0.0,0.0,0.0,-0.0008423141698307712,0.0004753568130935194,-0.0016780827704828793
1,4896898,0.03394989296793938,0.040193792432546616,-0.011356119997799397,,,True,0.91162109375,0.14581298828125,-0.02911376953125,-0.38323974609375,0.0,0.0,0.0,-0.0008423141698307712,0.0004753568130935194,-0.0016780827704828793
1,4910531,0.05263844132423401,0.06646589189767838,-0.007345667574554682,,,True,0.9114990234375,0.14605712890625,-0.02911376953125,-0.38336181640625,0.0,0.0,0.0,-0.0008423141698307712,0.0004753568130935194,-0.0016780827704828793
1,4919288,0.05984283983707428,0.08207996189594269,-0.007994767278432846,,,True,0.91143798828125,0.14617919921875,-0.02899169921875,-0.383544921875,0.0,0.0,0.0,-0.0008423141698307712,0.0004753568130935194,-0.0016780827704828793
1,4931232,0.07050485908985138,0.09717109799385071,-0.004371758550405502,,,True,0.9112548828125,0.1463623046875,-0.02880859375,-0.38385009765625,0.0,0.0,0.0,-0.0008423141698307712,0.0004753568130935194,-0.0016780827704828793
1,4940512,0.07612727582454681,0.10119038075208664,-0.0007852628477849066,,,True,0.91107177734375,0.14654541015625,-0.02862548828125,-0.38433837890625,0.0,0.0,0.0,-0.0008423141698307712,0.0004753568130935194,-0.0016780827704828793
1,4949961,0.07720889896154404,0.10151955485343933,0.0011138017289340496,,,True,0.9107666015625,0.14678955078125,-0.02838134765625,-0.3848876953125,0.0,0.0,0.0,-0.0008423141698307712,0.0004753568130935194,-0.0016780827704828793
1,4961243,0.074925497174263,0.0944097563624382,0.0041756704449653625,,,True,0.91046142578125,0.1470947265625,-0.0281982421875,-0.385498046875,0.0,0.0,0.0,-0.0008423141698307712,0.0004753568130935194,-0.0016780827704828793
1,4972568,0.07426384091377258,0.08883927762508392,0.007648298051208258,,,True,0.9100341796875,0.1475830078125,-0.02801513671875,-0.3863525390625,0.0,0.0,0.0,-0.0008423141698307712,0.0004753568130935194,-0.0016780827704828793
1,4986460,0.06961838901042938,0.07897555083036423,0.011774974875152111,,,True,0.9095458984375,0.148193359375,-0.02783203125,-0.38726806640625,0.0,0.0,0.0,-0.0008423141698307712,0.0004753568130935194,-0.0016780827704828793
1,4994669,0.06508530676364899,0.07189012318849564,0.013301816768944263,,,True,0.90911865234375,0.148681640625,-0.02777099609375,-0.38812255859375,0.0,0.0,0.0,-0.0008423141698307712,0.0004753568130935194,-0.0016780827704828793
1,5006716,0.055332064628601074,0.06344152987003326,0.014708596281707287,,,True,0.90869140625,0.1492919921875,-0.02764892578125,-0.388916015625,0.0,0.0,0.0,-0.0008423141698307712,0.0004753568130935194,-0.0016780827704828793
1,5020301,0.03818801790475845,0.05350375548005104,0.007560724392533302,,,True,0.90802001953125,0.15020751953125,-0.0274658203125,-0.39007568359375,0.0,0.0,0.0,-0.0008423141698307712,0.0004753568130935194,-0.0016780827704828793
1,5030304,0.023044077679514885,0.04621531441807747,-0.00301328650675714,,,True,0.90771484375,0.1507568359375,-0.02728271484375,-0.39068603515625,0.0,0.0,0.0,-0.0008423141698307712,0.0004753568130935194,-0.0016780827704828793
1,5040162,0.006849922705441713,0.02991078421473503,-0.017170794308185577,,,True,0.907470703125,0.15118408203125,-0.027099609375,-0.39111328125,0.0,0.0,0.0,-0.0008423141698307712,0.0004753568130935194,-0.0016780827704828793
1,5051974,-0.015901125967502594,0.004647149238735437,-0.03916586935520172,,,True,0.90728759765625,0.15142822265625,-0.0269775390625,-0.39129638671875,0.0,0.0,0.0,-0.0008423141698307712,0.0004753568130935194,-0.0016780827704828793
1,5061992,-0.032754477113485336,-0.01041718665510416,-0.05293901637196541,,,True,0.90728759765625,0.15155029296875,-0.0269775390625,-0.39129638671875,0.0,0.0,0.0,-0.0008423141698307712,0.0004753568130935194,-0.0016780827704828793
1,5075348,-0.053170062601566315,-0.03533095866441727,-0.07160080969333649,,,True,0.90740966796875,0.15155029296875,-0.02716064453125,-0.39105224609375,0.0,0.0,0.0,-0.0008423141698307712,0.0004753568130935194,-0.0016780827704828793
1,5087440,-0.06245071813464165,-0.048605818301439285,-0.07049182057380676,,,True,0.90753173828125,0.15142822265625,-0.02752685546875,-0.39068603515625,0.0,0.0,0.0,-0.0008423141698307712,0.0004753568130935194,-0.0016780827704828793
1,5095343,-0.06135893985629082,-0.052755337208509445,-0.07017214596271515,,,True,0.90771484375,0.1513671875,-0.0279541015625,-0.39031982421875,0.0,0.0,0.0,-0.0008423141698307712,0.0004753568130935194,-0.0016780827704828793
1,5106880,-0.05811171233654022,-0.057281795889139175,-0.06322281807661057,,,True,0.90789794921875,0.15130615234375,-0.0284423828125,-0.389892578125,0.0,0.0,0.0,-0.0008423141698307712,0.0004753568130935194,-0.0016780827704828793
1,5115086,-0.05656849220395088,-0.056709274649620056,-0.05850640684366226,,,True,0.90802001953125,0.15130615234375,-0.0289306640625,-0.3895263671875,0.0,0.0,0.0,-0.0008423141698307712,0.0004753568130935194,-0.0016780827704828793
1,5126806,-0.04729717969894409,-0.05237548425793648,-0.04846172407269478,,,True,0.908203125,0.15130615234375,-0.0294189453125,-0.38909912109375,0.0,0.0,0.0,-0.0008423141698307712,0.0004753568130935194,-0.0016780827704828793
1,5135347,-0.04540529102087021,-0.049342963844537735,-0.044335756450891495,,,True,0.90838623046875,0.15130615234375,-0.0299072265625,-0.388671875,0.0,0.0,0.0,-0.0008423141698307712,0.0004753568130935194,-0.0016780827704828793
1,5146584,-0.038322195410728455,-0.040354497730731964,-0.03442193940281868,,,True,0.90850830078125,0.15142822265625,-0.0303955078125,-0.38824462890625,0.0,0.0,0.0,-0.0008423141698307712,0.0004753568130935194,-0.0016780827704828793
1,5157293,-0.0369427353143692,-0.033215705305337906,-0.030560757964849472,,,True,0.90869140625,0.151611328125,-0.03094482421875,-0.3876953125,0.0,0.0,0.0,-0.0008423141698307712,0.0004753568130935194,-0.0016780827704828793
1,5170792,-0.03740482032299042,-0.024296630173921585,-0.03098970279097557,,,True,0.90887451171875,0.15185546875,-0.031494140625,-0.3870849609375,0.0,0.0,0.0,-0.0008423141698307712,0.0004753568130935194,-0.0016780827704828793
1,5182448,-0.03484589233994484,-0.020342104136943817,-0.03516120836138725,,,True,0.90911865234375,0.1519775390625,-0.03216552734375,-0.386474609375,0.0,0.0,0.0,-0.0008423141698307712,0.0004753568130935194,-0.0016780827704828793
1,5192913,-0.026913974434137344,-0.021022284403443336,-0.03525456786155701,,,True,0.90924072265625,0.152099609375,-0.03265380859375,-0.38604736328125,0.0,0.0,0.0,-0.0008423141698307712,0.0004753568130935194,-0.0016780827704828793
1,5202435,-0.021716417744755745,-0.011411637999117374,-0.02909061126410961,,,True,0.90936279296875,0.1522216796875,-0.03314208984375,-0.38568115234375,0.0,0.0,0.0,-0.0008423141698307712,0.0004753568130935194,-0.0016780827704828793
1,5218368,-0.0013016543816775084,0.01598857343196869,-0.016513420268893242,,,True,0.90948486328125,0.15240478515625,-0.03387451171875,-0.38531494140625,0.0,0.0,0.0,-0.0008423141698307712,0.0004753568130935194,-0.0016780827704828793
1,5231202,0.017718128859996796,0.043233416974544525,-0.005422018002718687,,,True,0.9095458984375,0.152587890625,-0.0343017578125,-0.3851318359375,0.0,0.0,0.0,-0.0008423141698307712,0.0004753568130935194,-0.0016780827704828793
1,5240270,0.03684777766466141,0.06985641270875931,0.0005155680701136589,,,True,0.90948486328125,0.15277099609375,-0.03448486328125,-0.38519287109375,0.0,0.0,0.0,-0.0008423141698307712,0.0004753568130935194,-0.0016780827704828793
1,5250243,0.05447766184806824,0.09745466709136963,0.007337647024542093,,,True,0.90936279296875,0.1529541015625,-0.03448486328125,-0.3853759765625,0.0,0.0,0.0,-0.0008423141698307712,0.0004753568130935194,-0.0016780827704828793
1,5264775,0.08631174266338348,0.15292315185070038,0.009064184501767159,,,True,0.90911865234375,0.1531982421875,-0.0343017578125,-0.3858642578125,0.0,0.0,0.0,-0.0008423141698307712,0.0004753568130935194,-0.0016780827704828793
1,5275282,0.10128864645957947,0.181971475481987,0.003116052597761154,,,True,0.9088134765625,0.15338134765625,-0.03399658203125,-0.38653564453125,0.0011902529356798718,0.0022411578721378443,0.0002993480931934317,-0.0008250174141694713,0.0005079253192914265,-0.0016737326439925924
1,5283149,0.11570386588573456,0.21046116948127747,-0.005271995905786753,,,True,0.90850830078125,0.15338134765625,-0.03350830078125,-0.3873291015625,0.002206071433082233,0.0041715354835693014,0.00047564179450322597,-0.0008018382216220763,0.0005517556426172892,-0.001668735075657747
1,5293970,0.1252889335155487,0.2340485155582428,-0.014352421276271343,,,True,0.9080810546875,0.1533203125,-0.03289794921875,-0.3883056640625,0.003080565485343906,0.005844924304253811,0.0005570537506151329,-0.0007776034129488758,0.0005977376621188539,-0.0016643527338016577
1,5309824,0.14240522682666779,0.26830002665519714,-0.026177119463682175,,,True,0.90728759765625,0.1531982421875,-0.03192138671875,-0.3902587890625,0.004391525450203598,0.008405585106279421,0.0005860697059694326,-0.0007300827160522227,0.0006886944985539035,-0.0016580108735133625
1,5321610,0.15528178215026855,0.27970969676971436,-0.022437840700149536,,,True,0.9063720703125,0.1531982421875,-0.0311279296875,-0.3924560546875,0.006599555131926728,0.01270382897250254,0.00047441803674068775,-0.0006254533689906564,0.0008901010030839588,-0.0016504894499588757
1,5333211,0.16939519345760345,0.2831991910934448,-0.015166214667260647,,,True,0.9052734375,0.15338134765625,-0.0303955078125,-0.39501953125,0.008405079360208649,0.016024461836744455,0.0004457417645279522,-0.0005263911036512373,0.001078965310291829,-0.0016452359375221492
1,5344473,0.20224601030349731,0.2987675070762634,-0.002845347160473466,,,True,0.9041748046875,0.1536865234375,-0.02978515625,-0.39752197265625,0.010360851682139065,0.01931953630689046,0.0005092707295287313,-0.000406194863286742,0.0013030912509880651,-0.0016393278877888863
1,5352909,0.21478116512298584,0.30462929606437683,0.006174716632813215,,,True,0.90283203125,0.1541748046875,-0.029052734375,-0.40032958984375,0.012641576746773422,0.022674917484285878,0.000732813135833075,-0.0002638254259645798,0.0015584561716960926,-0.0016310749462531342
1,5364452,0.2464311271905899,0.3235350251197815,0.035629741847515106,,,True,0.9012451171875,0.15496826171875,-0.02838134765625,-0.40374755859375,0.014469085651624138,0.025221970138218537,0.000982910523882755,-0.00014176421940747852,0.0017712287117821043,-0.0016227831130736592
1,5373904,0.2688109278678894,0.33828237652778625,0.04628011956810951,,,True,0.89935302734375,0.15594482421875,-0.027587890625,-0.40753173828125,0.017351658267136763,0.028881985365937335,0.001691910024829154,5.8525971970081135e-05,0.002104613468861119,-0.0016032533956570562
1,5382961,0.28419241309165955,0.3512610197067261,0.05184550955891609,,,True,0.89727783203125,0.1571044921875,-0.02667236328125,-0.41168212890625,0.017351658267136763,0.028881985365937335,0.001691910024829154,5.8525971970081135e-05,0.002104613468861119,-0.0016032533956570562
1,5396686,0.28525277972221375,0.35428526997566223,0.058823589235544205,,,True,0.89447021484375,0.15863037109375,-0.025390625,-0.41729736328125,0.022608082667086745,0.03504549864576207,0.003123315816123284,0.0004518466573484858,0.0027243539545526232,-0.001552372638215022
1,5409329,0.2617763876914978,0.3273219168186188,0.061899345368146896,,,True,0.89154052734375,0.1600341796875,-0.02392578125,-0.423095703125,0.026711472025595272,0.039662333449640756,0.004336312018855476,0.0008184616108997809,0.0032687194811489425,-0.0014928567557562307
1,5418708,0.2183031141757965,0.2727473974227905,0.057633936405181885,,,True,0.88922119140625,0.16107177734375,-0.02264404296875,-0.4276123046875,0.03023215939730099,0.04353847289302318,0.005464254375761126,0.0012006868021598573,0.0038191763939354347,-0.0014237721876834827
1,5428281,0.1619069129228592,0.20113900303840637,0.046409185975790024,,,True,0.8870849609375,0.16180419921875,-0.02130126953125,-0.4317626953125,0.032434358635389876,0.04590720269982391,0.006217652307838995,0.0015048886518011788,0.004249740048057083,-0.0013654568266882607
1,5445598,0.035169877111911774,0.030493425205349922,0.007653377950191498,,,True,0.884765625,0.16241455078125,-0.0194091796875,-0.4364013671875,0.03411771154098726,0.04767070591763425,0.0068206609168683105,0.0018314975043830497,0.004706091715806595,-0.0013001626397310805
1,5458269,-0.07381244003772736,-0.13729101419448853,-0.03245289623737335,,,True,0.8839111328125,0.16204833984375,-0.01788330078125,-0.43829345703125,0.01705885577049363,0.023835352958817124,0.0034103304584341553,0.002126905709760688,0.005118848522994431,-0.0012411059471823763
1,5468496,-0.200381800532341,-0.34184613823890686,-0.060533590614795685,,,True,0.8843994140625,0.16119384765625,-0.01727294921875,-0.4376220703125,0.01705885577049363,0.023835352958817124,0.0034103304584341553,0.002126905709760688,0.005118848522994431,-0.0012411059471823763
1,5477944,-0.3296593725681305,-0.5598203539848328,-0.08883775770664215,,,True,0.88580322265625,0.1600341796875,-0.01708984375,-0.43524169921875,0.013624362492603515,0.018975001686364564,0.0020097385921657366,0.0024686519296618827,0.005594466146730911,-0.0011841294133726114
1,5488211,-0.4229515790939331,-0.7701116800308228,-0.1106603816151619,,,True,0.88800048828125,0.15875244140625,-0.01739501953125,-0.43115234375,0.010078927628610665,0.014037858829793718,0.0008116937428775035,0.0025638776378969965,0.005727095836954802,-0.0011764605308899048
1,5498936,-0.5094159841537476,-1.014607548713684,-0.13099795579910278,,,True,0.8909912109375,0.15740966796875,-0.01837158203125,-0.42547607421875,0.005157698495601749,0.006572642888470644,-0.0008363767628550038,0.0026168317283513398,0.00579457716149073,-0.0011850476111141372
1,5511322,-0.5690618753433228,-1.1420222520828247,-0.1245146095752716,,,True,0.89453125,0.15625,-0.01995849609375,-0.4183349609375,-0.0009713628923953884,-0.0038360494044893736,-0.0029167509546437534,0.002606413861330399,0.005753435531627582,-0.0012163297651026914
1,5517974,-0.5791118741035461,-1.1624350547790527,-0.1153152734041214,,,True,0.8983154296875,0.1552734375,-0.0220947265625,-0.410400390625,-0.008667447794672314,-0.017515039236096833,-0.005324539579723675,0.0024990588529455876,0.005536494255649286,-0.001282279512337149
1,5530670,-0.5325579047203064,-1.119095802307129,-0.05921657383441925,,,True,0.902099609375,0.15478515625,-0.02471923828125,-0.402099609375,-0.012737554045488278,-0.02507237210619544,-0.006565925141954991,0.0024143286434349996,0.005369712836398874,-0.0013259560463814335
1,5543482,-0.45060640573501587,-0.9880408644676208,-0.0068890368565917015,,,True,0.907470703125,0.15496826171875,-0.029052734375,-0.38934326171875,-0.012737554045488278,-0.02507237210619544,-0.006565925141954991,0.0024143286434349996,0.005369712836398874,-0.0013259560463814335
1,5555001,-0.3593413531780243,-0.853422224521637,0.019351063296198845,,,True,0.91064453125,0.15545654296875,-0.0316162109375,-0.38153076171875,-0.025213550087830553,-0.05185184645527797,-0.009123000744233896,0.0018418000768862426,0.004208567593883335,-0.0015469774256440354
1,5571852,-0.13865958154201508,-0.522161602973938,0.07379545271396637,,,True,0.915283203125,0.156494140625,-0.03521728515625,-0.3695068359375,-0.0290258945661762,-0.061806566168049734,-0.009562090892649993,0.0015074507973784589,0.00349661775819357,-0.0016571231506364707
1,5580787,-0.01816992647945881,-0.3201428949832916,0.11180363595485687,,,True,0.91717529296875,0.1573486328125,-0.03656005859375,-0.36419677734375,-0.03087456770034023,-0.07078227487838128,-0.008894010742403482,0.0009871834570600257,0.0023038656442179667,-0.0018069961256567118
1,5594685,0.15541015565395355,-0.0008989492780528963,0.10621944814920425,,,True,0.91900634765625,0.158203125,-0.03729248046875,-0.35919189453125,-0.03087456770034023,-0.07078227487838128,-0.008894010742403482,0.0009871834570600257,0.0023038656442179667,-0.0018069961256567118
1,5606986,0.35433319211006165,0.3550659120082855,0.08897567540407181,,,True,0.91998291015625,0.15863037109375,-0.036865234375,-0.3564453125,-0.03086924865565212,-0.07370087194494285,-0.008064327083774707,0.000711366720321774,0.0016453483533899024,-0.0018790508881502388
1,5618988,0.49144721031188965,0.5985662341117859,0.08968748152256012,,,True,0.91998291015625,0.1590576171875,-0.03546142578125,-0.35650634765625,-0.024854719089770504,-0.06897903173285962,-0.0049854762444006585,5.762133408554525e-06,-0.0002264690944019307,-0.0020307500220642697
1,5629712,0.6917912364006042,0.9406505823135376,0.07010099291801453,,,True,0.919189453125,0.1595458984375,-0.033935546875,-0.3585205078125,-0.019644114177188456,-0.06139589029414018,-0.003281206627689424,-0.00023000652494606133,-0.0009633425697122012,-0.002070131064009798
1,5638621,0.803004801273346,1.125984787940979,0.04228007420897484,,,True,0.91766357421875,0.1600341796875,-0.03192138671875,-0.36224365234375,-0.013109486426255711,-0.05080572572759243,-0.001697286573644405,-0.00037059265738122757,-0.0015081831724149024,-0.002088332765225561
1,5651921,0.9210212826728821,1.294406771659851,0.027500703930854797,,,True,0.91497802734375,0.16058349609375,-0.02880859375,-0.36907958984375,-0.0067302421552171265,-0.040323477023504056,-0.0005235141631330068,-0.00043055238474205696,-0.0018674250292173,-0.002092996752904913
1,5660856,0.9676694869995117,1.335644006729126,0.043413400650024414,,,True,0.91217041015625,0.16107177734375,-0.02618408203125,-0.37591552734375,0.004479318332916659,-0.022487589473789853,0.0011468698351030124,-0.0003709774509142654,-0.002166509969218705,-0.002077743384098043
1,5673190,0.9857180118560791,1.3053126335144043,0.06760165095329285,,,True,0.908935546875,0.16180419921875,-0.0234375,-0.38360595703125,0.012593760396220698,-0.01024471868728391,0.0024093113216601247,-0.00025845220177403346,-0.0022580465306895866,-0.0020562161874390097
1,5686326,0.9407737255096436,1.2128891944885254,0.06951511651277542,,,True,0.90350341796875,0.16314697265625,-0.01861572265625,-0.3958740234375,0.024317498120532847,0.006075144034663003,0.004390654412391928,4.1479820044618664e-05,-0.002183115704166053,-0.0020020618559165675
1,5696276,0.8363983035087585,1.0812673568725586,0.035427629947662354,,,True,0.89984130859375,0.16375732421875,-0.0146484375,-0.40399169921875,0.036701880226664756,0.021890899131462433,0.006362456230666634,0.000523595718702087,-0.0018955568531751625,-0.0019184846308705305
1,5706656,0.7111871838569641,0.9177647829055786,-0.014112395234405994,,,True,0.89666748046875,0.163818359375,-0.01043701171875,-0.4111328125,0.04524848800261952,0.03242989721112918,0.007370094577101207,0.0009738181743281512,-0.0015728793759244271,-0.0018451521898283736
1,5720155,0.3606579601764679,0.4318637251853943,-0.18395839631557465,,,True,0.89361572265625,0.16290283203125,-0.00518798828125,-0.41827392578125,0.052988302237773906,0.04166193795085803,0.007736361569638344,0.0015238367515562443,-0.0011404284599945207,-0.0017648487567355276
1,5730147,0.15802614390850067,0.14506810903549194,-0.2878110408782959,,,True,0.89227294921875,0.1612548828125,-0.0015869140625,-0.42169189453125,0.05815854727910399,0.047331492250229854,0.005504877788415332,0.002308918981276869,-0.000501500646108668,-0.0016905384114697091
1,5744887,-0.23406767845153809,-0.45255354046821594,-0.4676069915294647,,,True,0.89251708984375,0.1571044921875,0.0020751953125,-0.42279052734375,0.059800180955401266,0.0488037396747353,0.002676072489109846,0.0029064423893832383,-1.38536792787129e-05,-0.0016637990951585235
1,5754480,-0.4042542576789856,-0.7195920348167419,-0.5240528583526611,,,True,0.89410400390625,0.15338134765625,0.00286865234375,-0.4207763671875,0.055830615613789124,0.04260967758920329,-0.004379711971267434,0.00372938566353049,0.0006142129683861436,-0.0017283560496150056
1,5763446,-0.5367357134819031,-0.9393884539604187,-0.5426920652389526,,,True,0.89654541015625,0.149169921875,0.0023193359375,-0.4169921875,0.055830615613789124,0.04260967758920329,-0.004379711971267434,0.00372938566353049,0.0006142129683861436,-0.0017283560496150056
1,5781778,-0.6470471620559692,-1.1861945390701294,-0.49950799345970154,,,True,0.90203857421875,0.1422119140625,-0.0013427734375,-0.40753173828125,0.04618632958301454,0.02801596680800745,-0.01448779418558838,0.004637307412131964,0.0012115977525022862,-0.0019496292448849732
1,5801407,-0.6124419569969177,-1.2189851999282837,-0.3363426923751831,,,True,0.90850830078125,0.137451171875,-0.0084228515625,-0.39459228515625,0.03368426676801761,0.00669084505136076,-0.023780045173353755,0.005254807390523263,0.0013342543239838317,-0.0023855650330028943
1,5811788,-0.5108889937400818,-1.1380292177200317,-0.21225467324256897,,,True,0.91119384765625,0.13671875,-0.0123291015625,-0.388427734375,0.03368426676801761,0.00669084505136076,-0.023780045173353755,0.005254807390523263,0.0013342543239838317,-0.0023855650330028943
1,5821013,-0.35455405712127686,-0.984438955783844,-0.0981951504945755,,,True,0.913330078125,0.136962890625,-0.0157470703125,-0.3831787109375,0.01668993898341725,-0.02912447580478159,-0.032903200006475466,0.0058553867208497885,0.0006935673132227621,-0.003327235822313436
1,5833617,-0.08362073451280594,-0.6539638638496399,0.07438670843839645,,,True,0.914794921875,0.1380615234375,-0.0185546875,-0.37921142578125,0.013691886361373194,-0.03828699319211551,-0.03392844170302007,0.005981694372533456,0.00034036980102549656,-0.0036402256970237963
1,5843862,0.11586011946201324,-0.39385563135147095,0.18401728570461273,,,True,0.91534423828125,0.14056396484375,-0.020751953125,-0.37677001953125,0.0129161307941326,-0.04657080540317346,-0.03308800922388608,0.006144489285062704,-0.00024660863027610176,-0.004057266965281656
1,5853906,0.3205454349517822,-0.10659610480070114,0.26205283403396606,,,True,0.9146728515625,0.14349365234375,-0.021484375,-0.3773193359375,0.0129161307941326,-0.04657080540317346,-0.03308800922388608,0.006144489285062704,-0.00024660863027610176,-0.004057266965281656
1,5865115,0.6157857775688171,0.2983565926551819,0.3543768525123596,,,True,0.91290283203125,0.14727783203125,-0.02117919921875,-0.380126953125,0.01740856093554739,-0.05157781066158032,-0.02853021652544991,0.006465020453664884,-0.0012828636385453776,-0.004663754002768975
1,5876176,0.729526937007904,0.4982091784477234,0.3672374486923218,,,True,0.9095458984375,0.152587890625,-0.0198974609375,-0.3861083984375,0.024094401587525436,-0.04811743893129278,-0.024295791488581506,0.006735094601059456,-0.0018222120115262384,-0.004936085529564485
1,5888838,0.8686192035675049,0.7031326293945312,0.37250620126724243,,,True,0.9049072265625,0.15814208984375,-0.01776123046875,-0.394775390625,0.03196898330030902,-0.042605807250298305,-0.019869266941724265,0.007088703525344174,-0.002293474845521788,-0.005155859491206897
1,5899057,0.9530694484710693,0.7812070250511169,0.38404548168182373,,,True,0.9002685546875,0.16265869140625,-0.01556396484375,-0.40350341796875,0.04289683465886898,-0.033937847191749984,-0.014584745935576996,0.0076318632457947734,-0.0027231958666637263,-0.005340531544243173
1,5912156,0.9714060425758362,0.7578699588775635,0.3821505904197693,,,True,0.89508056640625,0.1673583984375,-0.01324462890625,-0.41314697265625,0.052755064191093826,-0.026381037531504704,-0.010146378843131727,0.008170967246763562,-0.002992783689198173,-0.0054442173896411365
1,5924040,0.9345810413360596,0.7177113890647888,0.3515520691871643,,,True,0.886962890625,0.174072265625,-0.009033203125,-0.427734375,0.052755064191093826,-0.026381037531504704,-0.010146378843131727,0.008170967246763562,-0.002992783689198173,-0.0054442173896411365
1,5940826,0.7801536321640015,0.5471053123474121,0.2370966225862503,,,True,0.8800048828125,0.17926025390625,-0.00341796875,-0.43988037109375,0.07759832637831372,-0.01001159436513109,0.000211726175203617,0.00995587051838266,-0.0033388582453750004,-0.005500581853954391
1,5952395,0.5664771199226379,0.3400684893131256,0.10660825669765472,,,True,0.876220703125,0.1815185546875,0.00152587890625,-0.4464111328125,0.09163942497382198,-0.0026049607328895935,0.004646352810037194,0.011494129905993236,-0.003382585116237285,-0.005422588175685106
1,5962719,0.22242696583271027,0.004882096312940121,-0.08649658411741257,,,True,0.8748779296875,0.18182373046875,0.00518798828125,-0.4488525390625,0.09864876510606314,0.0003946985068425052,0.005995426778496786,0.01263539746950528,-0.003378018849211624,-0.005353227083284676
1,5977043,-0.10798010975122452,-0.3283613920211792,-0.23805588483810425,,,True,0.87530517578125,0.18035888671875,0.00872802734375,-0.4486083984375,0.10090832358734557,0.00022716602895132905,0.005026170587473692,0.013677175002221036,-0.0033756735871287307,-0.005301336898139598
1,5983642,-0.20178590714931488,-0.4417894184589386,-0.2735336422920227,,,True,0.8770751953125,0.17791748046875,0.0106201171875,-0.44610595703125,0.09865827668118445,-0.0039657771547572385,0.001352106110043739,0.015090356157402321,-0.003432479379093473,-0.005281969330219331
1,5999217,-0.4918866455554962,-0.8798167705535889,-0.351962685585022,,,True,0.88140869140625,0.173583984375,0.0111083984375,-0.439208984375,0.09691375916742692,-0.006563084865862592,-0.0005821508549414172,0.015729890054148172,-0.0034757891761233004,-0.0052858109437110895
1,6012356,-0.6229285597801208,-1.1251838207244873,-0.3655230700969696,,,True,0.8861083984375,0.17010498046875,0.0093994140625,-0.4310302734375,0.09691375916742692,-0.006563084865862592,-0.0005821508549414172,0.015729890054148172,-0.0034757891761233004,-0.0052858109437110895
1,6021385,-0.6485409140586853,-1.2326631546020508,-0.34667232632637024,,,True,0.8902587890625,0.1678466796875,0.0068359375,-0.42340087890625,0.07801029320499299,-0.03275101267406484,-0.011758443514627678,0.01811968185645306,-0.00420231860625914,-0.005541733148770107
1,6034312,-0.634145200252533,-1.3301714658737183,-0.26261600852012634,,,True,0.895263671875,0.16632080078125,0.00225830078125,-0.413330078125,0.07129204238422505,-0.04327447277103808,-0.015233928764679704,0.01876337770714023,-0.004593043820908843,-0.0056792802915864
1,6047045,-0.5802956223487854,-1.373986840248108,-0.15514184534549713,,,True,0.8997802734375,0.1669921875,-0.0037841796875,-0.40313720703125,0.06221524410283716,-0.059883477615599895,-0.019252701852486957,0.019567634167657607,-0.0053671575360457035,-0.005928159968433499
1,6058029,-0.4824496805667877,-1.37177312374115,-0.04605908319354057,,,True,0.90277099609375,0.16925048828125,-0.0093994140625,-0.39532470703125,0.06221524410283716,-0.059883477615599895,-0.019252701852486957,0.019567634167657607,-0.0053671575360457035,-0.005928159968433499
1,6071723,-0.3685196042060852,-1.3236383199691772,0.0448831208050251,,,True,0.9056396484375,0.1741943359375,-0.0172119140625,-0.38623046875,0.049006197774893845,-0.09205853268257805,-0.02341625253098917,0.020798447332396552,-0.0073597264862897225,-0.006465980638336573
1,6094401,-0.2720089256763458,-1.2177213430404663,0.06957053393125534,,,True,0.90850830078125,0.18951416015625,-0.0340576171875,-0.37078857421875,0.04425101688435148,-0.11025778019426903,-0.024170560412022018,0.02140442075761086,-0.008869596528270043,-0.0067969722926188025
1,6104431,-0.14381468296051025,-0.9651457071304321,0.07857245206832886,,,True,0.90875244140625,0.1959228515625,-0.0401611328125,-0.3663330078125,0.04425101688435148,-0.11025778019426903,-0.024170560412022018,0.02140442075761086,-0.008869596528270043,-0.0067969722926188025
1,6118027,0.001075470121577382,-0.5115979313850403,0.11099737882614136,,,True,0.90875244140625,0.20294189453125,-0.04730224609375,-0.361572265625,0.04425101688435148,-0.11025778019426903,-0.024170560412022018,0.02140442075761086,-0.008869596528270043,-0.0067969722926188025
1,6130253,0.21787075698375702,-0.011294133961200714,0.13560137152671814,,,True,0.90789794921875,0.20947265625,-0.05206298828125,-0.35931396484375,0.03914681118707463,-0.15499765001930776,-0.025966631116889925,0.023220128844696805,-0.015593323945336045,-0.008002157465414121
1,6145574,0.616172194480896,0.6455555558204651,0.18182002007961273,,,True,0.905029296875,0.217529296875,-0.054443359375,-0.36151123046875,0.041780597666993415,-0.1552140436017252,-0.024269825402172894,0.023730938431773468,-0.017490970842410736,-0.008298880350781088
1,6155044,0.7841330170631409,0.9097065329551697,0.1823403239250183,,,True,0.90185546875,0.22283935546875,-0.0543212890625,-0.36602783203125,0.05042736738453113,-0.14538667324288007,-0.019436602721545536,0.02450353612747187,-0.0197184400631649,-0.008596668541077887
1,6164008,0.9110382199287415,1.1158168315887451,0.17939484119415283,,,True,0.89794921875,0.22796630859375,-0.05316162109375,-0.37261962890625,0.05728049373605122,-0.13685887864685084,-0.0158797450596769,0.025045982403152273,-0.02101449364395058,-0.008747049726793028
1,6178039,1.0365153551101685,1.3224196434020996,0.1529390811920166,,,True,0.89208984375,0.2342529296875,-0.05047607421875,-0.383056640625,0.06495796115077321,-0.12705484335082992,-0.012103612812233005,0.025628265566907803,-0.02215341325974742,-0.008855546512041885
1,6188090,1.0563087463378906,1.4081732034683228,0.11237990856170654,,,True,0.88714599609375,0.2388916015625,-0.04754638671875,-0.39202880859375,0.07908908657170273,-0.10911622071395143,-0.005865547668377222,0.026737964540595363,-0.023684422952584872,-0.008937846011376887
1,6198270,1.0316753387451172,1.4398349523544312,0.05305057391524315,,,True,0.88232421875,0.24267578125,-0.04376220703125,-0.40081787109375,0.08970861534440863,-0.09557645225253655,-0.0015971543497713568,0.027639625833422013,-0.024645061874175117,-0.00895389900974644
1,6211371,0.9495640397071838,1.3700637817382812,-0.055930245667696,,,True,0.87591552734375,0.24627685546875,-0.03607177734375,-0.413330078125,0.10053190124446006,-0.0816467672378537,0.0021785337877907596,0.028663040588090615,-0.025476225964656467,-0.00893172153578673
1,6222641,0.782412052154541,1.1910524368286133,-0.18617649376392365,,,True,0.8724365234375,0.2470703125,-0.03009033203125,-0.420654296875,0.11390189337332557,-0.06464227002709602,0.00527061023763593,0.030155269293174553,-0.026323104344281454,-0.00886267127106346
1,6233887,0.63591468334198,0.9972864389419556,-0.29589274525642395,,,True,0.869873046875,0.24658203125,-0.02398681640625,-0.42657470703125,0.12362202562277785,-0.05170397287824451,0.005946475402427805,0.03154848952194326,-0.02690580811861927,-0.008795654493278099
1,6247039,0.44009649753570557,0.7527992129325867,-0.4411509931087494,,,True,0.86822509765625,0.24395751953125,-0.0169677734375,-0.43170166015625,0.13163573208067209,-0.040632706422261244,0.004845763630596044,0.033028864964922494,-0.02736276353504402,-0.008741159035488416
1,6261746,0.3287426233291626,0.591280996799469,-0.5100674629211426,,,True,0.86883544921875,0.23760986328125,-0.00994873046875,-0.43426513671875,0.13818783056156855,-0.03029066072929259,0.0009337073117740716,0.034846311312468244,-0.027761146304955676,-0.008728878916923963
1,6269208,0.220749169588089,0.42434850335121155,-0.5624772906303406,,,True,0.8707275390625,0.23162841796875,-0.00677490234375,-0.4337158203125,0.14360967488926937,-0.02079787030238084,-0.0050462031963734435,0.03695837880106473,-0.02806702058349279,-0.008803093427333026
1,6279059,0.023742439225316048,0.11733582615852356,-0.6381915807723999,,,True,0.87359619140625,0.22479248046875,-0.00518798828125,-0.43157958984375,0.14360967488926937,-0.02079787030238084,-0.0050462031963734435,0.03695837880106473,-0.02806702058349279,-0.008803093427333026
1,6290698,-0.20633696019649506,-0.2907385230064392,-0.6667282581329346,,,True,0.8773193359375,0.21728515625,-0.0050048828125,-0.42791748046875,0.14547333397888396,-0.014914169581190568,-0.014722354236612,0.03947638367016518,-0.028341451755900773,-0.009013096008941289
1,6299341,-0.32036012411117554,-0.5092321038246155,-0.6429567933082581,,,True,0.88153076171875,0.2098388671875,-0.00616455078125,-0.4228515625,0.14247320909602743,-0.01685771587624922,-0.02276341189606738,0.04113462935083384,-0.02853765871098444,-0.009278039359999617
1,6313189,-0.3860761225223541,-0.7194029092788696,-0.5315772891044617,,,True,0.8870849609375,0.2012939453125,-0.009033203125,-0.415283203125,0.13918881713405654,-0.020236718643360834,-0.0287395450235704,0.04233763829732349,-0.028712564670219005,-0.009526435247638337
1,6324588,-0.3797202706336975,-0.7743704915046692,-0.4224766194820404,,,True,0.89251708984375,0.19384765625,-0.01300048828125,-0.406982421875,0.13310210393496602,-0.028916830988926917,-0.03708382406956701,0.0441808362326149,-0.029113004945753664,-0.0100399720433537
1,6339288,-0.21311108767986298,-0.6991724371910095,-0.15671803057193756,,,True,0.89715576171875,0.1884765625,-0.01739501953125,-0.399169921875,0.12838939613823483,-0.03700541294430995,-0.04275914871507193,0.04564434695919464,-0.029534829647905853,-0.010527383579556805
1,6353138,0.04758468642830849,-0.49276402592658997,0.07649116218090057,,,True,0.9007568359375,0.1856689453125,-0.022216796875,-0.3919677734375,0.12508652487057048,-0.04694339233886137,-0.04608823889545007,0.04748311887479203,-0.030224897515287116,-0.01120488069131992
1,6362061,0.2876102924346924,-0.29030007123947144,0.2545504868030548,,,True,0.90155029296875,0.186279296875,-0.02459716796875,-0.3897705078125,0.12576730954032556,-0.05383850154489893,-0.04573004654960348,0.04922499611192554,-0.030970560761683967,-0.011838241836031929
1,6375899,0.6510863900184631,0.08321506530046463,0.5152819752693176,,,True,0.90020751953125,0.18975830078125,-0.02642822265625,-0.39105224609375,0.1283504858058667,-0.0566311501621109,-0.04373420114644072,0.05037026749677129,-0.03147588051458048,-0.01222848211286162
1,6388554,0.9256270527839661,0.4798753559589386,0.6923945546150208,,,True,0.896240234375,0.19580078125,-0.02691650390625,-0.39703369140625,0.13732966499969493,-0.05624349401432918,-0.036483752551096545,0.05227063540103707,-0.03225417798475077,-0.012733344280663694
1,6399628,1.054582953453064,0.7010156512260437,0.7505421042442322,,,True,0.88995361328125,0.20391845703125,-0.02593994140625,-0.40704345703125,0.1490759103041056,-0.05141413273431246,-0.02701948008898558,0.05415719104593553,-0.032904823834503494,-0.013075275801189806
1,6410843,1.1986842155456543,0.9877588152885437,0.7768335938453674,,,True,0.8837890625,0.2108154296875,-0.02392578125,-0.41693115234375,0.1490759103041056,-0.05141413273431246,-0.02701948008898558,0.05415719104593553,-0.032904823834503494,-0.013075275801189806
1,6422855,1.2101731300354004,1.1766395568847656,0.6959966421127319,,,True,0.875244140625,0.21929931640625,-0.01995849609375,-0.43060302734375,0.161010545288029,-0.04526981083391315,-0.017770490335706865,0.05594022182445516,-0.03340614171967825,-0.013272066211167425
1,6433103,1.1359143257141113,1.2212409973144531,0.5707055330276489,,,True,0.86871337890625,0.22467041015625,-0.0155029296875,-0.441162109375,0.19094843203834067,-0.02518364977871726,0.002533173730375076,0.060197672218341894,-0.03411694583651448,-0.013327563934906307
1,6441740,1.0009897947311401,1.1815457344055176,0.38387471437454224,,,True,0.86279296875,0.2283935546875,-0.00982666015625,-0.450927734375,0.20406865117895365,-0.015263077556493173,0.010002413183102124,0.062288967755623814,-0.03427336185531342,-0.013225059204605876
1,6453950,0.6950794458389282,0.9149952530860901,0.06083079054951668,,,True,0.858154296875,0.2301025390625,-0.00360107421875,-0.458984375,0.21414784944760393,-0.007073311362311412,0.014608702059320494,0.06413856273130276,-0.0343344540455497,-0.013098883844919525
1,6462867,0.4579852223396301,0.6454158425331116,-0.17390084266662598,,,True,0.8551025390625,0.22979736328125,0.00213623046875,-0.46478271484375,0.2243435756092003,0.002355144719058691,0.016741029547170393,0.0668777977894911,-0.034305697728529996,-0.012894475874148575
1,6480915,0.07965125888586044,0.17470239102840424,-0.523124098777771,,,True,0.8538818359375,0.22564697265625,0.0087890625,-0.4688720703125,0.2293049781098639,0.007537998403572082,0.015888377857155873,0.06892251027929676,-0.034238481396765344,-0.012752799208796316
1,6499213,-0.1311996430158615,-0.1117817759513855,-0.6613799333572388,,,True,0.858154296875,0.21337890625,0.0133056640625,-0.46673583984375,0.2308184130061465,0.011928189744483534,0.006967463408368339,0.0730883209972317,-0.034023201428256905,-0.012627050429202084
1,6509902,-0.28941982984542847,-0.3308180868625641,-0.6903715133666992,,,True,0.86322021484375,0.20306396484375,0.013427734375,-0.4620361328125,0.22744614774361682,0.012047543266443878,-0.00507483676035116,0.0772501306086444,-0.03380275548156751,-0.01271990979224299
1,6522386,-0.4096679091453552,-0.5704051852226257,-0.6139734983444214,,,True,0.869140625,0.1922607421875,0.0120849609375,-0.45550537109375,0.22344607686145426,0.009960935882446934,-0.01256985943986513,0.07963854572421648,-0.033696283037920036,-0.012854269019795708
1,6534706,-0.43004342913627625,-0.7090039849281311,-0.443534255027771,,,True,0.8751220703125,0.18255615234375,0.00982666015625,-0.44805908203125,0.217005681671418,0.004442207924774728,-0.020549740707348087,0.08234764465420247,-0.03364082651418715,-0.013110811982786241
1,6549886,-0.3682573735713959,-0.7767589092254639,-0.13960978388786316,,,True,0.88067626953125,0.174560546875,0.0068359375,-0.44036865234375,0.21043380998531616,-0.003088022294963696,-0.026409297094493557,0.08494018919322156,-0.0336788709488611,-0.013436174522990401
1,6556637,-0.3260270655155182,-0.7802197933197021,-0.07355664670467377,,,True,0.8843994140625,0.17010498046875,0.00396728515625,-0.4345703125,0.20353045558304672,-0.014044653172267538,-0.029068143618612353,0.08802978150897221,-0.03389206878401612,-0.013877428943120936
1,6568015,-0.10606514662504196,-0.779062032699585,0.18484152853488922,,,True,0.88720703125,0.168212890625,0.00091552734375,-0.42962646484375,0.20082925756732364,-0.0190446960913152,-0.029801751973157434,0.08938557982680921,-0.03402063952732859,-0.014078620570691721
1,6579735,0.0801878571510315,-0.7417711019515991,0.3568624258041382,,,True,0.888916015625,0.1693115234375,-0.00286865234375,-0.4256591796875,0.20082925756732364,-0.0190446960913152,-0.029801751973157434,0.08938557982680921,-0.03402063952732859,-0.014078620570691721
1,6590360,0.27703237533569336,-0.6577475070953369,0.5193719267845154,,,True,0.888671875,0.17279052734375,-0.0057373046875,-0.42474365234375,0.19892656154590635,-0.027884973544588132,-0.028163996832606113,0.09164896624407853,-0.034337914756318914,-0.014399070526653113
1,6602073,0.5443942546844482,-0.41447561979293823,0.7248563170433044,,,True,0.88629150390625,0.17987060546875,-0.0089111328125,-0.4266357421875,0.20176413916750502,-0.04440387592267021,-0.019535873170624763,0.09612821376915447,-0.03524172052717106,-0.014894047278182063
1,6614824,0.7340659499168396,-0.14190375804901123,0.8533389568328857,,,True,0.8818359375,0.189453125,-0.01129150390625,-0.431640625,0.20176413916750502,-0.04440387592267021,-0.019535873170624763,0.09612821376915447,-0.03524172052717106,-0.014894047278182063
1,6624219,0.8201776742935181,0.035215239971876144,0.8837246894836426,,,True,0.8773193359375,0.1978759765625,-0.01239013671875,-0.43701171875,0.20176413916750502,-0.04440387592267021,-0.019535873170624763,0.09612821376915447,-0.03524172052717106,-0.014894047278182063
1,6637537,0.8052217364311218,0.23320068418979645,0.8012503385543823,,,True,0.87109375,0.2083740234375,-0.01263427734375,-0.4444580078125,0.2248420158885325,-0.05563004573160036,0.007014774419445211,0.10344259377388977,-0.03704575312314896,-0.01497771341093474
1,6650499,0.6843434572219849,0.3559550344944,0.6398847699165344,,,True,0.86517333984375,0.21783447265625,-0.01177978515625,-0.4515380859375,0.23599215736355875,-0.055366831528006664,0.017697677643986186,0.10658553732565765,-0.037783128585438946,-0.014742015740072131
1,6659723,0.6043909192085266,0.3969231843948364,0.5036803483963013,,,True,0.86083984375,0.22406005859375,-0.01007080078125,-0.45672607421875,0.24555224227841663,-0.053388589645912324,0.0262684299214438,0.10976838549007048,-0.03847515148442926,-0.014401524351430377
1,6669993,0.4703754186630249,0.36612316966056824,0.3220418095588684,,,True,0.85760498046875,0.22845458984375,-0.008056640625,-0.46075439453125,0.2517159196232526,-0.05144526010879123,0.031198055807709818,0.11209021313267536,-0.03894968256367275,-0.014113753484660062
1,6690523,0.2951729893684387,0.27116912603378296,0.10552498698234558,,,True,0.85479736328125,0.23162841796875,-0.0045166015625,-0.46441650390625,0.25717732250044767,-0.049146693380738446,0.03484536405878182,0.11473142423475496,-0.03945441910469293,-0.013755891595776372
1,6701354,0.09015018492937088,0.09039697051048279,-0.11716067045927048,,,True,0.8555908203125,0.23004150390625,-0.0029296875,-0.4637451171875,0.2641758466551732,-0.04515270206507047,0.037579811140296494,0.12015495436658567,-0.04038140407808883,-0.012984378073066086
1,6712127,-0.09727383404970169,-0.08272764086723328,-0.28030651807785034,,,True,0.857666015625,0.22686767578125,-0.002685546875,-0.46142578125,0.2641758466551732,-0.04515270206507047,0.037579811140296494,0.12015495436658567,-0.04038140407808883,-0.012984378073066086
1,6724152,-0.31249967217445374,-0.2832358777523041,-0.41961899399757385,,,True,0.8619384765625,0.22100830078125,-0.003662109375,-0.456298828125,0.2641758466551732,-0.04515270206507047,0.037579811140296494,0.12015495436658567,-0.04038140407808883,-0.012984378073066086
1,6732415,-0.3610934317111969,-0.3362814486026764,-0.44267797470092773,,,True,0.8660888671875,0.21533203125,-0.005126953125,-0.45111083984375,0.2595864036897271,-0.04624826450746951,0.028082535325779368,0.1289933423700968,-0.041892765717222565,-0.011892348969218971
1,6743838,-0.4241146147251129,-0.42032504081726074,-0.41503265500068665,,,True,0.87066650390625,0.2091064453125,-0.007080078125,-0.44512939453125,0.2561457678245194,-0.04801034017315981,0.024201730393580083,0.1311098748496308,-0.04228947515807338,-0.011692370070976819
1,6756962,-0.41128796339035034,-0.4319729208946228,-0.3210785686969757,,,True,0.87640380859375,0.20166015625,-0.0098876953125,-0.437255859375,0.2506394968684629,-0.051479483561431484,0.019039738724998482,0.13397292982235925,-0.04287752529879561,-0.01147487913552116
1,6773889,-0.20061713457107544,-0.38193613290786743,-0.11008687317371368,,,True,0.88323974609375,0.19342041015625,-0.01422119140625,-0.4268798828125,0.2506394968684629,-0.051479483561431484,0.019039738724998482,0.13397292982235925,-0.04287752529879561,-0.01147487913552116
1,6783129,0.027679992839694023,-0.32106107473373413,0.048662688583135605,,,True,0.88580322265625,0.191162109375,-0.01678466796875,-0.42254638671875,0.2407235490676556,-0.061923853786029215,0.011769078566552661,0.14125803806038023,-0.04466052869413787,-0.011087953157281552
1,6796463,0.41916796565055847,-0.1419908106327057,0.32619911432266235,,,True,0.88671875,0.19171142578125,-0.0196533203125,-0.42022705078125,0.24078413324988557,-0.06493245188003385,0.011883106783694508,0.14348288345160917,-0.04526050454950938,-0.010978153250600215
1,6805398,0.6524989604949951,0.0666537657380104,0.511975109577179,,,True,0.88543701171875,0.194580078125,-0.021484375,-0.42156982421875,0.24624329250949106,-0.06764256408452862,0.015956796979081343,0.14676629151393072,-0.046162450499012485,-0.010765385319681145
1,6815113,0.8432930111885071,0.31465935707092285,0.674586296081543,,,True,0.88238525390625,0.19915771484375,-0.0224609375,-0.4256591796875,0.24624329250949106,-0.06764256408452862,0.015956796979081343,0.14676629151393072,-0.046162450499012485,-0.010765385319681145
1,6826508,1.0138636827468872,0.6737854480743408,0.7963154911994934,,,True,0.87786865234375,0.205078125,-0.02227783203125,-0.43218994140625,0.26045347335777363,-0.06640556712602233,0.027392964186560984,0.15154896972050547,-0.04741493460959656,-0.010315700972569385
1,6836486,1.032995581626892,0.8227607011795044,0.7654281258583069,,,True,0.8726806640625,0.2113037109375,-0.02105712890625,-0.43963623046875,0.27262012038046185,-0.06114666603440569,0.03734655239076874,0.15465547599224083,-0.04811170086905861,-0.009890137008076574
1,6845421,1.0099213123321533,0.9245312809944153,0.7032498121261597,,,True,0.86724853515625,0.21746826171875,-0.0186767578125,-0.447509765625,0.28375043312041937,-0.05534784358648967,0.04597526973105241,0.15748673781391637,-0.048663961652364605,-0.009431395766700133
1,6855715,0.9757872223854065,0.992641806602478,0.6276274919509888,,,True,0.86187744140625,0.2227783203125,-0.0152587890625,-0.455322265625,0.29377991240949464,-0.049423166186158884,0.05328661810038935,0.1601116613312952,-0.04910555764223794,-0.008955279833973154
1,6866751,0.8775668740272522,1.01270592212677,0.4807024300098419,,,True,0.85662841796875,0.22705078125,-0.01116943359375,-0.46319580078125,0.29377991240949464,-0.049423166186158884,0.05328661810038935,0.1601116613312952,-0.04910555764223794,-0.008955279833973154
1,6879665,0.8307454586029053,0.993291437625885,0.4125680923461914,,,True,0.8507080078125,0.23065185546875,-0.00531005859375,-0.4722900390625,0.31678456164194757,-0.03369433594377196,0.06775364559260515,0.16675028720569302,-0.0499099853420903,-0.007579321968480867
1,6896483,0.6763150095939636,0.8495111465454102,0.24385400116443634,,,True,0.84442138671875,0.2325439453125,0.00274658203125,-0.48260498046875,0.3298870636773993,-0.024249443699147635,0.07461958447485088,0.17101044874602295,-0.05022314265802109,-0.006615684654572643
1,6905890,0.45914191007614136,0.6019407510757446,0.042642101645469666,,,True,0.84228515625,0.23187255859375,0.006591796875,-0.486572265625,0.34422542466308065,-0.013632439342488584,0.08027688620932433,0.17679963193800663,-0.05045241302288306,-0.005265587982304226
1,6918969,0.11944612860679626,0.1914321929216385,-0.24250324070453644,,,True,0.841552734375,0.22906494140625,0.0101318359375,-0.4891357421875,0.3497268316926926,-0.00920458735315726,0.08128086641441541,0.18008951224373979,-0.050539000576114206,-0.00450097887194382
1,6931504,-0.21121995151042938,-0.22030428051948547,-0.47292807698249817,,,True,0.843017578125,0.2239990234375,0.01214599609375,-0.48883056640625,0.3516814713902861,-0.006586904670204633,0.07843549988649659,0.18468915420805335,-0.05062515070229581,-0.003475120968928331
1,6946931,-0.5637820363044739,-0.6904960870742798,-0.6218069195747375,,,True,0.84765625,0.2154541015625,0.0120849609375,-0.48468017578125,0.3481921237449862,-0.007672410206697432,0.0724001957091848,0.18905374247919676,-0.050721324364236764,-0.0025675845157137
1,6956202,-0.6821815371513367,-0.8708549737930298,-0.6265760064125061,,,True,0.85205078125,0.20892333984375,0.010498046875,-0.4798583984375,0.33695598424611295,-0.014705517726331434,0.0621327901379368,0.19425196244816154,-0.050948186386200876,-0.001609061962255749
1,6965173,-0.7402297854423523,-1.0058987140655518,-0.5829899311065674,,,True,0.8570556640625,0.20220947265625,0.0079345703125,-0.47381591796875,0.3288775181631401,-0.020490958081757587,0.05579281310267551,0.197300985919052,-0.05113815805857685,-0.0010918067919808445
1,6978535,-0.7113488912582397,-1.1317050457000732,-0.45085418224334717,,,True,0.863525390625,0.19464111328125,0.00372314453125,-0.46527099609375,0.3204708179955776,-0.027417101383899727,0.049941540732072486,0.20017592962729033,-0.05138411687509181,-0.0006437812300734223
1,6990466,-0.5985982418060303,-1.1805732250213623,-0.26566967368125916,,,True,0.86956787109375,0.18853759765625,-0.00128173828125,-0.45635986328125,0.308417341256702,-0.04001769523797507,0.042782798192748585,0.2042970021411624,-0.051918833318861636,-7.211748062191565e-05
1,7002826,-0.4580681324005127,-1.1620912551879883,-0.10985367745161057,,,True,0.87451171875,0.1849365234375,-0.00665283203125,-0.4482421875,0.29926201147441517,-0.05255032416463365,0.0384740661850344,0.20786749720006364,-0.05254581123646988,0.0003869166030317298
1,7015608,-0.14709460735321045,-1.0707474946975708,0.1420162320137024,,,True,0.87774658203125,0.18499755859375,-0.01220703125,-0.44183349609375,0.29926201147441517,-0.05255032416463365,0.0384740661850344,0.20786749720006364,-0.05254581123646988,0.0003869166030317298
1,7026969,0.18180759251117706,-0.8759348392486572,0.4115903675556183,,,True,0.87872314453125,0.18756103515625,-0.016357421875,-0.438720703125,0.28849550619563774,-0.07942545105630558,0.036343955132798006,0.21516230518689705,-0.054375673132686375,0.001294814137267906
1,7037836,0.405103862285614,-0.6666865944862366,0.5795841813087463,,,True,0.87774658203125,0.19384765625,-0.0208740234375,-0.43768310546875,0.2895225605435852,-0.08997533824054875,0.03992299580608751,0.21845157099723272,-0.05539788295043725,0.0017483792926208663
1,7049632,0.6824049949645996,-0.2835691571235657,0.7781195044517517,,,True,0.875244140625,0.20098876953125,-0.02374267578125,-0.43927001953125,0.2931341557515647,-0.0983296210902034,0.045280206530719035,0.22163705986778498,-0.05646643094282449,0.00224043929699019
1,7057600,0.7455775737762451,-0.137226402759552,0.8104321956634521,,,True,0.87139892578125,0.2093505859375,-0.02545166015625,-0.44293212890625,0.300703632171247,-0.10370989770372155,0.053881932354137144,0.22518415991287702,-0.05768979289613759,0.002876030571039592
1,7069285,0.8884615302085876,0.2636581063270569,0.8592594861984253,,,True,0.86663818359375,0.2181396484375,-0.0257568359375,-0.447998046875,0.30642285824144216,-0.10644463349703193,0.06004630294992272,0.22762573724734483,-0.058537943735841945,0.003354479512944576
1,7078904,0.8912436366081238,0.4425935447216034,0.7851060628890991,,,True,0.86151123046875,0.22650146484375,-0.02508544921875,-0.45367431640625,0.3170374879686612,-0.10644839007108615,0.07031328437992665,0.23133032029425865,-0.05978179317382259,0.004176090240924019
1,7088188,0.860313892364502,0.582725465297699,0.678253710269928,,,True,0.8563232421875,0.23431396484375,-0.02337646484375,-0.4595947265625,0.32609612333249355,-0.10491022342505814,0.07832734837604971,0.23446703890459392,-0.06079092461294822,0.004929521004953241
1,7113392,0.7803416848182678,0.716194212436676,0.46648719906806946,,,True,0.8448486328125,0.2474365234375,-0.01531982421875,-0.47412109375,0.3348375706581913,-0.10216660925330169,0.0853111370833417,0.23757567091058457,-0.061739439413255874,0.005721549601634985
1,7124394,0.6187441349029541,0.6503758430480957,0.2327333688735962,,,True,0.841796875,0.24957275390625,-0.011474609375,-0.478515625,0.3348375706581913,-0.10216660925330169,0.0853111370833417,0.23757567091058457,-0.061739439413255874,0.005721549601634985
1,7135256,0.42624711990356445,0.5115426182746887,-0.005800423212349415,,,True,0.8397216796875,0.24951171875,-0.0069580078125,-0.4822998046875,0.36602900403488137,-0.08630311332802065,0.10311154774268295,0.25062157407236496,-0.06498776270878363,0.009364351499727029
1,7145787,0.2078980952501297,0.31490644812583923,-0.2348581701517105,,,True,0.839599609375,0.24737548828125,-0.00421142578125,-0.48358154296875,0.3717502095487043,-0.08194662037747125,0.10388750756047165,0.254659524848483,-0.06587786689932372,0.010492777606848872
1,7160908,-0.19289828836917877,-0.10103271156549454,-0.5929266810417175,,,True,0.842041015625,0.24090576171875,-0.001953125,-0.48260498046875,0.3745361940964588,-0.07869746135109998,0.1019929145027205,0.2586037655085128,-0.06670662986481216,0.01156686498947702
1,7174141,-0.4591752886772156,-0.3827172815799713,-0.7420648336410522,,,True,0.84625244140625,0.2330322265625,-0.002197265625,-0.4791259765625,0.37106237672054526,-0.07771170786808473,0.09315067778358727,0.26421459970690414,-0.06788170859948546,0.012975396388242643
1,7183140,-0.5840009450912476,-0.5333622694015503,-0.7638494372367859,,,True,0.8505859375,0.2257080078125,-0.0035400390625,-0.4749755859375,0.36377801408544047,-0.07951411980286084,0.08301722454923925,0.26902847416729675,-0.06893391894683672,0.014073963320702727
1,7196018,-0.6636773943901062,-0.7142713069915771,-0.6972771286964417,,,True,0.85693359375,0.2158203125,-0.00634765625,-0.46807861328125,0.3575148959048165,-0.08195643005512915,0.07575665685602528,0.2722457507155442,-0.06967144486090282,0.014755697475750099
1,7208528,-0.6818150877952576,-0.8270133137702942,-0.5528666973114014,,,True,0.86346435546875,0.20654296875,-0.00994873046875,-0.46014404296875,0.3473270567624075,-0.08802740757347659,0.06587523880099364,0.2767186285525305,-0.07080506181563405,0.015604038801029296
1,7220570,-0.623569130897522,-0.8898914456367493,-0.36844006180763245,,,True,0.86993408203125,0.19830322265625,-0.01422119140625,-0.4512939453125,0.3372406947083624,-0.09588136064007396,0.05786224076445161,0.2809375096433321,-0.07200453763724138,0.016327895432992585
1,7235465,-0.4837612807750702,-0.9183146953582764,-0.15226341784000397,,,True,0.8758544921875,0.1920166015625,-0.01861572265625,-0.4423828125,0.32839051314042084,-0.1048775496945017,0.05223667209499249,0.28489198820256906,-0.07326747309066257,0.016956929438360486
1,7248449,-0.26265576481819153,-0.9001147747039795,0.06922456622123718,,,True,0.88153076171875,0.18798828125,-0.02386474609375,-0.4324951171875,0.3197606579549962,-0.1173299211869454,0.04841244773183027,0.2896548232028087,-0.07501510226674213,0.017678032847326098
1,7258561,-0.06909480690956116,-0.8392582535743713,0.2198036015033722,,,True,0.88409423828125,0.18756103515625,-0.02685546875,-0.4271240234375,0.3153622387057884,-0.1287086817902055,0.047960698970059945,0.2937494865101647,-0.07668625579110616,0.018300754562753357
1,7268942,0.14495347440242767,-0.7474479079246521,0.3801647424697876,,,True,0.88543701171875,0.18927001953125,-0.02947998046875,-0.4234619140625,0.31401327545971525,-0.13731748987592787,0.04919318613641066,0.2969247887516133,-0.07807481024873154,0.01879819606096474
1,7282748,0.624221920967102,-0.4188484847545624,0.6880419850349426,,,True,0.88507080078125,0.1944580078125,-0.03216552734375,-0.42169189453125,0.31493790899715696,-0.14556832654645255,0.05221210960752412,0.3001941591849128,-0.07958595504661027,0.019340209970800448
1,7295856,0.9306458830833435,-0.058561574667692184,0.8810592889785767,,,True,0.88140869140625,0.204345703125,-0.0338134765625,-0.424560546875,0.32297943849091154,-0.1530493338037929,0.06100473069255953,0.30465321331271833,-0.08169895414910544,0.020182441282741926
1,7309831,1.1144527196884155,0.31544673442840576,0.9355786442756653,,,True,0.8760986328125,0.214599609375,-0.0335693359375,-0.43048095703125,0.33486544942809504,-0.15637405768920531,0.07242617140781989,0.3090426296238218,-0.08374870529729554,0.02113180353755563
1,7317741,1.1945233345031738,0.5688344836235046,0.9192230105400085,,,True,0.8704833984375,0.22344970703125,-0.0321044921875,-0.43743896484375,0.35054902846484215,-0.15555811328316102,0.08607556914627834,0.31394155229661797,-0.08592262993042772,0.02233470961637487
1,7328996,1.2319035530090332,0.9156615734100342,0.8092969059944153,,,True,0.86431884765625,0.2315673828125,-0.02972412109375,-0.4454345703125,0.3603285489002898,-0.15345693600764732,0.09397097146369258,0.3167917511184193,-0.08713647429424821,0.023078020000652677
1,7342514,1.1461471319198608,1.1515337228775024,0.5975505709648132,,,True,0.8563232421875,0.24053955078125,-0.0255126953125,-0.456298828125,0.3752985410480383,-0.14691302472045406,0.10467107151818258,0.32101573619791496,-0.08878998038747693,0.024256092910589822
1,7352838,1.0579580068588257,1.2242159843444824,0.4294526278972626,,,True,0.84893798828125,0.2470703125,-0.01971435546875,-0.466796875,0.39296566464885135,-0.13586864885864863,0.11532514701029697,0.32632784605263815,-0.09062665278274815,0.025815058247875017
1,7367217,0.7768908739089966,1.1499491930007935,0.043369095772504807,,,True,0.8426513671875,0.2506103515625,-0.0123291015625,-0.4764404296875,0.4060009784553812,-0.1265955620437683,0.12186620515785666,0.3305194001542115,-0.09193362536528801,0.02707320494992473
1,7379762,0.48227807879447937,0.894007682800293,-0.26110103726387024,,,True,0.8382568359375,0.25103759765625,-0.00457763671875,-0.4840087890625,0.420293948082156,-0.11310244536534357,0.12536408487129752,0.33656280683368484,-0.0935599254271963,0.028875815126289117
1,7389781,0.26220497488975525,0.6447174549102783,-0.4743369519710541,,,True,0.83624267578125,0.2493896484375,0.0009765625,-0.48834228515625,0.42857456244471814,-0.10295738032380128,0.12408897412794564,0.3419392747195538,-0.09485152576335838,0.030432511306724197
1,7403724,0.024298112839460373,0.3495716154575348,-0.6818676590919495,,,True,0.83587646484375,0.244873046875,0.00604248046875,-0.4912109375,0.43244637208578335,-0.09634275169469343,0.12055821681039587,0.3462719549214813,-0.09581678379258751,0.031640384080947555
1,7415853,-0.10120505839586258,0.19027625024318695,-0.7717804312705994,,,True,0.83795166015625,0.23773193359375,0.00848388671875,-0.4912109375,0.433515856074645,-0.0897809481557111,0.11218811824044772,0.3523164665027301,-0.0970685995527226,0.03320462301357412
1,7428514,-0.3165268301963806,-0.10691015422344208,-0.881316602230072,,,True,0.84344482421875,0.22601318359375,0.0076904296875,-0.4873046875,0.433515856074645,-0.0897809481557111,0.11218811824044772,0.3523164665027301,-0.0970685995527226,0.03320462301357412
1,7438408,-0.4671611189842224,-0.3591596484184265,-0.9126526117324829,,,True,0.84857177734375,0.21697998046875,0.0052490234375,-0.4825439453125,0.433515856074645,-0.0897809481557111,0.11218811824044772,0.3523164665027301,-0.0970685995527226,0.03320462301357412
1,7449267,-0.5640999674797058,-0.6523976922035217,-0.8230743408203125,,,True,0.85430908203125,0.20758056640625,0.0015869140625,-0.47650146484375,0.42221727278374876,-0.08506727053828286,0.08352868014521979,0.367155204082936,-0.10001024376939231,0.03646006369106195
1,7461193,-0.5657932758331299,-0.7831059694290161,-0.6997891068458557,,,True,0.8616943359375,0.19659423828125,-0.00390625,-0.4677734375,0.414616740446831,-0.089554038273954,0.07405792232594167,0.37165752726744816,-0.10098271107100917,0.03726425866959935
1,7474583,-0.46502721309661865,-0.8700965046882629,-0.428264856338501,,,True,0.86871337890625,0.18695068359375,-0.0098876953125,-0.45855712890625,0.4062817987639367,-0.09656167986356151,0.06490228503094404,0.3765028439995069,-0.10213430566506201,0.038038283320878385
1,7483940,-0.3283628225326538,-0.8873496651649475,-0.19750140607357025,,,True,0.8734130859375,0.18170166015625,-0.0145263671875,-0.4515380859375,0.3984317155978765,-0.1065255247538079,0.05808391517437284,0.38183784467136245,-0.1035606824415155,0.03881602694506324
1,7503055,-0.05913516506552696,-0.8312224745750427,0.17296463251113892,,,True,0.879150390625,0.1787109375,-0.021484375,-0.44122314453125,0.39434228487046,-0.11414954018903029,0.05544860191439448,0.3855277054308953,-0.10462877968906427,0.03933485951317623
1,7520924,0.20084477961063385,-0.6812171339988708,0.39677295088768005,,,True,0.8804931640625,0.18389892578125,-0.02593994140625,-0.4361572265625,0.39151583141515417,-0.13007334284496483,0.057211224225671195,0.393011530548396,-0.10711513163754577,0.040428452064249935
1,7534820,0.5689035654067993,-0.32098907232284546,0.6207148432731628,,,True,0.8779296875,0.193115234375,-0.02703857421875,-0.437255859375,0.39380686849263874,-0.14320962859684078,0.063000030570082,0.400048465481491,-0.10967414449094272,0.04155419961050673
1,7543837,0.7268390655517578,-0.018979791551828384,0.6550382971763611,,,True,0.87481689453125,0.1998291015625,-0.02581787109375,-0.4405517578125,0.40107150345946807,-0.1494504199051792,0.07106652422109688,0.40562175509356374,-0.11175090752594509,0.04254174003108309
1,7553797,0.8367173671722412,0.27807071805000305,0.6474332809448242,,,True,0.8709716796875,0.2061767578125,-0.022705078125,-0.4454345703125,0.4074788746660518,-0.15111339023617076,0.07690172520129054,0.40929599210642753,-0.11311349696570464,0.04323516288722313
1,7568706,0.844391405582428,0.7514159679412842,0.40067899227142334,,,True,0.86627197265625,0.21221923828125,-0.016845703125,-0.451904296875,0.41602804266437293,-0.15031601493397814,0.08360840285147336,0.4134396314113647,-0.11461064447444706,0.044067902579623806
1,7578984,0.824622392654419,0.9595549702644348,0.22722826898097992,,,True,0.86175537109375,0.21588134765625,-0.00885009765625,-0.458984375,0.43003661785569797,-0.14195008026252695,0.0909189111468325,0.4198510473469753,-0.11672697822108108,0.04542341262591193
1,7591265,0.7711676359176636,1.1789917945861816,-0.010181963443756104,,,True,0.8583984375,0.217041015625,-0.00189208984375,-0.46478271484375,0.43997487045774597,-0.13396578757951794,0.09438804547519651,0.42437310906554004,-0.11810387858582337,0.046393532957306
1,7600170,0.7058956027030945,1.2662962675094604,-0.1802711933851242,,,True,0.855224609375,0.21673583984375,0.00567626953125,-0.470703125,0.4517675061573203,-0.12139828964464078,0.09592052524604586,0.4299212658086581,-0.1195947709809492,0.04757153292785269
1,7609974,0.622378408908844,1.3040311336517334,-0.3618691861629486,,,True,0.85235595703125,0.21453857421875,0.0135498046875,-0.47674560546875,0.45997652563459884,-0.11131347910340597,0.09552598681425682,0.4340173567694342,-0.12058601751236503,0.04842219184043365
1,7620792,0.5099276900291443,1.2388513088226318,-0.518761157989502,,,True,0.849365234375,0.20977783203125,0.02313232421875,-0.4837646484375,0.46835060879810997,-0.09957127034423778,0.0932318909258345,0.43860906613809086,-0.12156221424681994,0.04933623729907053
1,7636857,0.21361961960792542,0.9382476210594177,-0.7702683806419373,,,True,0.846923828125,0.20159912109375,0.03338623046875,-0.4908447265625,0.47631880519982667,-0.08701167516157998,0.08872637319769648,0.4437618829727426,-0.12250350654871792,0.05029607920432321
1,7648800,-0.03030303120613098,0.6022329330444336,-0.8927574753761292,,,True,0.84613037109375,0.193359375,0.0400390625,-0.49505615234375,0.48230181224757346,-0.07184098859198769,0.07749475113378923,0.45151006158649987,-0.1236576320304482,0.05154103238128754
1,7658798,-0.20524601638317108,0.3364241421222687,-0.9584527611732483,,,True,0.846435546875,0.1861572265625,0.04376220703125,-0.4969482421875,0.48230181224757346,-0.07184098859198769,0.07749475113378923,0.45151006158649987,-0.1236576320304482,0.05154103238128754
1,7669400,-0.37627974152565,0.05531097948551178,-0.9981725811958313,,,True,0.84771728515625,0.17816162109375,0.04632568359375,-0.4974365234375,0.48230181224757346,-0.07184098859198769,0.07749475113378923,0.45151006158649987,-0.1236576320304482,0.05154103238128754
1,7683289,-0.650338351726532,-0.5371256470680237,-0.9628854990005493,,,True,0.85076904296875,0.16778564453125,0.04754638671875,-0.49578857421875,0.48230181224757346,-0.07184098859198769,0.07749475113378923,0.45151006158649987,-0.1236576320304482,0.05154103238128754
1,7691962,-0.7472456097602844,-0.8097900152206421,-0.8981952667236328,,,True,0.85418701171875,0.15960693359375,0.0469970703125,-0.49261474609375,0.4647486088556778,-0.06171068074081937,0.035514996322805144,0.4735907345179726,-0.12647621209155133,0.05393370436787176
1,7707675,-0.8458824753761292,-1.2346957921981812,-0.6996780633926392,,,True,0.8607177734375,0.148681640625,0.0438232421875,-0.48492431640625,0.4562343099859562,-0.06685708955812872,0.02823253517951698,0.4775476546884808,-0.12705606362928898,0.05417856514548371
1,7717011,-0.8445090651512146,-1.3914518356323242,-0.5690107941627502,,,True,0.8656005859375,0.142578125,0.04058837890625,-0.478271484375,0.43840758379758477,-0.08294961403000956,0.018375687093130914,0.4844363530526923,-0.1283594509145425,0.05446730231677808
1,7726213,-0.7902870774269104,-1.5080620050430298,-0.4208940863609314,,,True,0.87054443359375,0.137939453125,0.036865234375,-0.470947265625,0.4278229130848512,-0.09417637802633058,0.013786259559288179,0.48843050776925245,-0.12923868157979634,0.05459601083602359
1,7739331,-0.6284211874008179,-1.616947054862976,-0.19171413779258728,,,True,0.87530517578125,0.1346435546875,0.03271484375,-0.4632568359375,0.4179984269172478,-0.10658573803887028,0.010631975017660198,0.49227692929374495,-0.13021948354123003,0.0546938462701361
1,7755479,-0.562190592288971,-1.6050816774368286,-0.10107682645320892,,,True,0.88153076171875,0.13311767578125,0.02618408203125,-0.4522705078125,0.40635974506988715,-0.1262404643145197,0.009074575183801328,0.4976075564295717,-0.1318755059521079,0.0548128865473972
1,7764607,-0.47079673409461975,-1.571972131729126,-0.031252503395080566,,,True,0.88555908203125,0.13427734375,0.02130126953125,-0.44415283203125,0.3938393304011835,-0.1507292476474656,0.008438012177138058,0.50396727393689,-0.13430948184311917,0.054949143568033626
1,7775604,-0.2822800278663635,-1.4636794328689575,0.09949144721031189,,,True,0.8878173828125,0.136962890625,0.01800537109375,-0.43896484375,0.38791273204599397,-0.16448775180872358,0.008582439787640124,0.5075081413550059,-0.1358109260416292,0.055027484078415206
1,7787964,0.026911187916994095,-1.1777154207229614,0.2655961513519287,,,True,0.8892822265625,0.1424560546875,0.01458740234375,-0.434326171875,0.383190175018626,-0.18015976246990298,0.009997602882741605,0.5117220837096857,-0.13779214294951073,0.055137427717316716
1,7800278,0.2882705628871918,-0.7754772305488586,0.39753323793411255,,,True,0.8892822265625,0.14910888671875,0.01263427734375,-0.43218994140625,0.3822407197526628,-0.19467946773252773,0.013322860365465618,0.5164465790058287,-0.14019838117068478,0.05530209827143387
1,7809717,0.4460638761520386,-0.4816610813140869,0.46131664514541626,,,True,0.88812255859375,0.15521240234375,0.0120849609375,-0.432373046875,0.385043196983093,-0.2045640275256874,0.018033843621478383,0.5211880009334785,-0.1427173826056361,0.05552416702178876
1,7823316,0.6491387486457825,-0.025119420140981674,0.4903419315814972,,,True,0.8853759765625,0.1632080078125,0.01275634765625,-0.43505859375,0.38894154526949826,-0.2095722645621596,0.022166412043908703,0.5248592201792773,-0.14469553521083833,0.055733395785071214
1,7833335,0.7084774971008301,0.22458744049072266,0.4439178705215454,,,True,0.88238525390625,0.16937255859375,0.01416015625,-0.438720703125,0.38894154526949826,-0.2095722645621596,0.022166412043908703,0.5248592201792773,-0.14469553521083833,0.055733395785071214
1,7842695,0.7216328382492065,0.44135478138923645,0.3583522140979767,,,True,0.8790283203125,0.17486572265625,0.01605224609375,-0.4432373046875,0.4053675701181146,-0.20976107554748785,0.03273194265186184,0.5343317115093996,-0.14966683926525998,0.0564488438639966
1,7855687,0.7427600622177124,0.7408174872398376,0.21985486149787903,,,True,0.87420654296875,0.18048095703125,0.01953125,-0.4503173828125,0.412705038376571,-0.20665369233787909,0.03596382485655737,0.5381946306686043,-0.15160111782554253,0.05678546526465398
1,7864411,0.7195214629173279,0.8615248799324036,0.11588699370622635,,,True,0.8702392578125,0.1837158203125,0.02276611328125,-0.45654296875,0.423714960546598,-0.19862470288034653,0.03883292201510612,0.5436995354360257,-0.154181649965364,0.05728998258747424
1,7880471,0.6567359566688538,0.9400688409805298,-0.005617294926196337,,,True,0.86553955078125,0.18597412109375,0.02728271484375,-0.4642333984375,0.423714960546598,-0.19862470288034653,0.03883292201510612,0.5436995354360257,-0.154181649965364,0.05728998258747424
1,7899005,0.4913541078567505,0.8409736752510071,-0.16875189542770386,,,True,0.8599853515625,0.18511962890625,0.034423828125,-0.47430419921875,0.44406396258818076,-0.17912630114018124,0.04002628924756952,0.554592220628377,-0.15873533402343248,0.05828100114924901
1,7909133,0.31133195757865906,0.6765226125717163,-0.31349048018455505,,,True,0.85845947265625,0.18182373046875,0.0380859375,-0.47808837890625,0.45579536955895456,-0.16537087548714619,0.03705650433156779,0.5630399320077827,-0.16180031782971124,0.05896780640053029
1,7924799,-0.010598525404930115,0.24285663664340973,-0.47603633999824524,,,True,0.858642578125,0.17578125,0.040771484375,-0.479736328125,0.4600320720962566,-0.15908988049609218,0.03396292453891216,0.5676991368339735,-0.16341158013937568,0.05931178290026039
1,7938299,-0.20238414406776428,-0.08719248324632645,-0.5147175192832947,,,True,0.86016845703125,0.16998291015625,0.041259765625,-0.47900390625,0.4600320720962566,-0.15908988049609218,0.03396292453891216,0.5676991368339735,-0.16341158013937568,0.05931178290026039
1,7951103,-0.3356947898864746,-0.3970685601234436,-0.48850584030151367,,,True,0.86279296875,0.16400146484375,0.040283203125,-0.47650146484375,0.45665516260734174,-0.15523966016651786,0.019964187988353796,0.5810716569758485,-0.1679345110533293,0.05999948066851408
1,7961622,-0.3835013210773468,-0.5818321108818054,-0.4348694682121277,,,True,0.8662109375,0.1585693359375,0.0379638671875,-0.47235107421875,0.45100741582859616,-0.1591892448349962,0.013968432753623737,0.5868463559281178,-0.1699727701441966,0.06017833248149148
1,7973367,-0.3791191875934601,-0.8027125597000122,-0.31125015020370483,,,True,0.869140625,0.15509033203125,0.03521728515625,-0.46832275390625,0.45100741582859616,-0.1591892448349962,0.013968432753623737,0.5868463559281178,-0.1699727701441966,0.06017833248149148
1,7985506,-0.3249228894710541,-0.9299377202987671,-0.16935047507286072,,,True,0.872802734375,0.15203857421875,0.03106689453125,-0.46270751953125,0.45100741582859616,-0.1591892448349962,0.013968432753623737,0.5868463559281178,-0.1699727701441966,0.06017833248149148
1,7998593,-0.2150222361087799,-0.9262281060218811,-0.018172966316342354,,,True,0.87603759765625,0.15057373046875,0.0267333984375,-0.45733642578125,0.4335543385542314,-0.1832861500106975,0.004323049847498249,0.6019571349394943,-0.17595616454830512,0.06040484714034823
1,8007521,-0.10479574650526047,-0.855361819267273,0.09322679042816162,,,True,0.8780517578125,0.1505126953125,0.02349853515625,-0.45361328125,0.42896597548823645,-0.1948546825243285,0.004171657661813321,0.6075710126607089,-0.178506227778501,0.06045944162416838
1,8020630,0.11334892362356186,-0.6436351537704468,0.2601180970668793,,,True,0.87957763671875,0.15216064453125,0.02001953125,-0.45037841796875,0.42700891432295895,-0.2022960489749542,0.004997965570383369,0.6113833482477843,-0.1803123269037494,0.060504063460780765
1,8033466,0.35171058773994446,-0.333469957113266,0.3940995931625366,,,True,0.87957763671875,0.155517578125,0.0174560546875,-0.44927978515625,0.4274878047035011,-0.21090800733813098,0.008258337700984544,0.6169872858796425,-0.18307711997194495,0.06061232200970297
1,8045009,0.571050226688385,0.035181619226932526,0.4813443422317505,,,True,0.87786865234375,0.15997314453125,0.01629638671875,-0.45111083984375,0.43157003176698283,-0.21584977832060073,0.013075764428376734,0.6225269188074034,-0.1858477677264682,0.060780162521905615
1,8061059,0.7889944911003113,0.5747231841087341,0.4999736547470093,,,True,0.8736572265625,0.165771484375,0.0169677734375,-0.45703125,0.43832876199366694,-0.21650355843735658,0.01840282383622713,0.6275865477070963,-0.1883468683015106,0.06099258631744718
1,8073471,0.8671918511390686,0.9502878189086914,0.4243989586830139,,,True,0.86907958984375,0.16961669921875,0.01947021484375,-0.46429443359375,0.4524847242131797,-0.20959740153165393,0.026261286008524856,0.6348489275307179,-0.19171090659609363,0.061414079957884005
1,8082469,0.8791852593421936,1.1409727334976196,0.3323948383331299,,,True,0.86505126953125,0.17132568359375,0.02288818359375,-0.470947265625,0.4652469768281947,-0.2000057629270208,0.031538554826283,0.6406235730071094,-0.19419337812554383,0.06180553650038783
1,8093226,0.8752071261405945,1.2886016368865967,0.2413475662469864,,,True,0.86083984375,0.1722412109375,0.02734375,-0.47808837890625,0.4750134714970432,-0.19149833969182464,0.0345663370398002,0.6448977442236398,-0.19591648018609087,0.06211656440107195
1,8108155,0.8586398959159851,1.4657484292984009,0.07218519598245621,,,True,0.85394287109375,0.17218017578125,0.035400390625,-0.48974609375,0.4871153244786265,-0.17991485879590904,0.03719007635958808,0.6501376437690564,-0.19785182432215848,0.06251661805247204
1,8117315,0.811866283416748,1.4683524370193481,-0.02280537225306034,,,True,0.84918212890625,0.17120361328125,0.04107666015625,-0.4979248046875,0.4871153244786265,-0.17991485879590904,0.03719007635958808,0.6501376437690564,-0.19785182432215848,0.06251661805247204
1,8126422,0.747828483581543,1.425646185874939,-0.11476117372512817,,,True,0.84454345703125,0.16937255859375,0.04669189453125,-0.505859375,0.5151089136088823,-0.15032910809796488,0.03776399228346195,0.662389411241526,-0.20164064243700192,0.06343207948914346
1,8140777,0.5646242499351501,1.1597973108291626,-0.2527073323726654,,,True,0.83917236328125,0.16607666015625,0.053466796875,-0.51507568359375,0.5250278078539934,-0.13956380675210364,0.03643497244620116,0.6671708394876523,-0.20291165002509332,0.06376389278321101
1,8150133,0.4022514820098877,0.8963567018508911,-0.324832558631897,,,True,0.8358154296875,0.16278076171875,0.05792236328125,-0.5211181640625,0.5372482779302638,-0.12580545133013232,0.03226301018756023,0.6748830385173412,-0.20471758727893735,0.06422702829445344
1,8163449,0.14140361547470093,0.40051501989364624,-0.4222865402698517,,,True,0.83294677734375,0.15765380859375,0.062255859375,-0.5267333984375,0.5430828669551592,-0.11885343737810711,0.028892958311830967,0.6799641218205736,-0.20582958003904692,0.06449735081241893
1,8173938,-0.056251171976327896,0.05600840225815773,-0.46449804306030273,,,True,0.83203125,0.15191650390625,0.0650634765625,-0.529541015625,0.5430828669551592,-0.11885343737810711,0.028892958311830967,0.6799641218205736,-0.20582958003904692,0.06449735081241893
1,8185180,-0.3316896855831146,-0.4641033411026001,-0.48522236943244934,,,True,0.8328857421875,0.1470947265625,0.06622314453125,-0.5294189453125,0.5451929178735766,-0.11350744964331935,0.018243239811068138,0.6929534432145065,-0.20854193788111672,0.064995697679654
1,8194441,-0.4725164771080017,-0.7923988699913025,-0.48339343070983887,,,True,0.8349609375,0.14251708984375,0.06646728515625,-0.52740478515625,0.5394989259676298,-0.117275454288944,0.013317563798988435,0.6990184901402345,-0.20986034853823302,0.06514541373188223
1,8205926,-0.5988078117370605,-1.2345201969146729,-0.41328805685043335,,,True,0.838134765625,0.138427734375,0.0655517578125,-0.52349853515625,0.5326462171032634,-0.12291476384154026,0.009538528715989796,0.7039513267568278,-0.21099866216616953,0.06523375004632101
1,8215907,-0.6166050434112549,-1.4814025163650513,-0.33553627133369446,,,True,0.842041015625,0.13525390625,0.06341552734375,-0.518310546875,0.5213867563758311,-0.13439982320884078,0.006049473227778395,0.7099394536538042,-0.21254224413572306,0.06530322824634205
1,8231458,-0.5798150897026062,-1.80351984500885,-0.15075449645519257,,,True,0.8485107421875,0.13287353515625,0.05792236328125,-0.5089111328125,0.5213867563758311,-0.13439982320884078,0.006049473227778395,0.7099394536538042,-0.21254224413572306,0.06530322824634205
